Frequency (Hz)	Level (dB)
15.625000	-66.730118
31.250000	-61.414864
46.875000	-59.809681
62.500000	-59.935112
78.125000	-60.105034
93.750000	-60.850712
109.375000	-61.181629
125.000000	-61.542171
140.625000	-63.020576
156.250000	-63.220943
171.875000	-63.282875
187.500000	-62.919300
203.125000	-61.998692
218.750000	-59.969959
234.375000	-56.966038
250.000000	-53.462139
265.625000	-51.295029
281.250000	-52.700253
296.875000	-56.528954
312.500000	-60.432823
328.125000	-63.061184
343.750000	-64.879898
359.375000	-66.167442
375.000000	-66.901131
390.625000	-67.727943
406.250000	-67.941200
421.875000	-67.904404
437.500000	-67.506416
453.125000	-67.104172
468.750000	-66.396362
484.375000	-65.337372
500.000000	-63.751572
515.625000	-61.823410
531.250000	-59.505199
546.875000	-57.690258
562.500000	-58.111565
578.125000	-60.785435
593.750000	-63.350407
609.375000	-65.261955
625.000000	-66.659637
640.625000	-67.620636
656.250000	-68.328415
671.875000	-68.829506
687.500000	-69.200005
703.125000	-69.314285
718.750000	-68.922966
734.375000	-67.939789
750.000000	-66.546188
765.625000	-64.702713
781.250000	-62.628975
796.875000	-61.521057
812.500000	-61.123775
828.125000	-61.622032
843.750000	-62.033794
859.375000	-63.038948
875.000000	-64.668228
890.625000	-66.507095
906.250000	-67.768509
921.875000	-68.492142
937.500000	-69.168076
953.125000	-69.225777
968.750000	-69.269608
984.375000	-68.613312
1000.000000	-68.125870
1015.625000	-67.663345
1031.250000	-67.104675
1046.875000	-66.607056
1062.500000	-65.952667
1078.125000	-65.338158
1093.750000	-65.002853
1109.375000	-65.232986
1125.000000	-65.514725
1140.625000	-65.607231
1156.250000	-66.124573
1171.875000	-66.902214
1187.500000	-67.441833
1203.125000	-67.529411
1218.750000	-67.858833
1234.375000	-67.820198
1250.000000	-67.827095
1265.625000	-67.782555
1281.250000	-67.918983
1296.875000	-67.848221
1312.500000	-67.475868
1328.125000	-66.971359
1343.750000	-65.801979
1359.375000	-64.327721
1375.000000	-61.945591
1390.625000	-59.320255
1406.250000	-56.708740
1421.875000	-55.453449
1437.500000	-56.887840
1453.125000	-59.733734
1468.750000	-61.633724
1484.375000	-63.206211
1500.000000	-64.589996
1515.625000	-65.212624
1531.250000	-65.425522
1546.875000	-65.721626
1562.500000	-65.529099
1578.125000	-64.888557
1593.750000	-64.184204
1609.375000	-62.961205
1625.000000	-61.361183
1640.625000	-59.245193
1656.250000	-56.764275
1671.875000	-55.203934
1687.500000	-55.443481
1703.125000	-57.189472
1718.750000	-59.324165
1734.375000	-61.240818
1750.000000	-62.885914
1765.625000	-63.785679
1781.250000	-64.398949
1796.875000	-64.744049
1812.500000	-64.927956
1828.125000	-64.900177
1843.750000	-64.324738
1859.375000	-63.718449
1875.000000	-62.812523
1890.625000	-61.528542
1906.250000	-60.345104
1921.875000	-59.166336
1937.500000	-57.873753
1953.125000	-57.909206
1968.750000	-58.586704
1984.375000	-59.736259
2000.000000	-60.969357
2015.625000	-62.468117
2031.250000	-63.253353
2046.875000	-63.560287
2062.500000	-64.194771
2078.125000	-64.749153
2093.750000	-65.006310
2109.375000	-64.970985
2125.000000	-64.742867
2140.625000	-64.473831
2156.250000	-64.075172
2171.875000	-63.420761
2187.500000	-62.721905
2203.125000	-62.365341
2218.750000	-61.924702
2234.375000	-61.443596
2250.000000	-61.077778
2265.625000	-61.007965
2281.250000	-61.258152
2296.875000	-62.140343
2312.500000	-63.055321
2328.125000	-63.799793
2343.750000	-64.389206
2359.375000	-64.992928
2375.000000	-65.558891
2390.625000	-65.810860
2406.250000	-65.846642
2421.875000	-65.955902
2437.500000	-65.602982
2453.125000	-64.824120
2468.750000	-64.460457
2484.375000	-63.759769
2500.000000	-63.017056
2515.625000	-62.051052
2531.250000	-61.398567
2546.875000	-60.838402
2562.500000	-60.964291
2578.125000	-61.517273
2593.750000	-62.306213
2609.375000	-63.304932
2625.000000	-64.430237
2640.625000	-65.380325
2656.250000	-66.129700
2671.875000	-66.515495
2687.500000	-66.808861
2703.125000	-66.651085
2718.750000	-66.330574
2734.375000	-66.151802
2750.000000	-65.570633
2765.625000	-64.498497
2781.250000	-63.240124
2796.875000	-61.784214
2812.500000	-60.073925
2828.125000	-59.358910
2843.750000	-59.677288
2859.375000	-60.605015
2875.000000	-62.017624
2890.625000	-63.549469
2906.250000	-64.758347
2921.875000	-65.669342
2937.500000	-66.503967
2953.125000	-67.085121
2968.750000	-67.371170
2984.375000	-67.597839
3000.000000	-67.133354
3015.625000	-66.381157
3031.250000	-65.421509
3046.875000	-64.356468
3062.500000	-62.888401
3078.125000	-61.030365
3093.750000	-59.011623
3109.375000	-57.931847
3125.000000	-58.511681
3140.625000	-60.504055
3156.250000	-62.293365
3171.875000	-63.865578
3187.500000	-65.142662
3203.125000	-66.326477
3218.750000	-67.049515
3234.375000	-67.569176
3250.000000	-67.654350
3265.625000	-67.430542
3281.250000	-67.043076
3296.875000	-66.278458
3312.500000	-65.216415
3328.125000	-63.898506
3343.750000	-62.180389
3359.375000	-59.980888
3375.000000	-57.728107
3390.625000	-57.070976
3406.250000	-58.210392
3421.875000	-60.298859
3437.500000	-62.508823
3453.125000	-64.402679
3468.750000	-65.575630
3484.375000	-66.517021
3500.000000	-67.048683
3515.625000	-67.429466
3531.250000	-67.540665
3546.875000	-67.127510
3562.500000	-66.594322
3578.125000	-66.108337
3593.750000	-64.880775
3609.375000	-63.488216
3625.000000	-61.494720
3640.625000	-59.264950
3656.250000	-57.493904
3671.875000	-57.017410
3687.500000	-58.387142
3703.125000	-60.546318
3718.750000	-62.727623
3734.375000	-64.348167
3750.000000	-65.509689
3765.625000	-66.206543
3781.250000	-66.798462
3796.875000	-67.079178
3812.500000	-67.385246
3828.125000	-67.229095
3843.750000	-66.481628
3859.375000	-65.847214
3875.000000	-65.135544
3890.625000	-63.416180
3906.250000	-61.606113
3921.875000	-59.825642
3937.500000	-58.398808
3953.125000	-58.065971
3968.750000	-59.141750
3984.375000	-61.355339
4000.000000	-63.671562
4015.625000	-64.965187
4031.250000	-66.168686
4046.875000	-67.137726
4062.500000	-67.737106
4078.125000	-68.327477
4093.750000	-68.571060
4109.375000	-68.340744
4125.000000	-67.892746
4140.625000	-67.497551
4156.250000	-66.709572
4171.875000	-65.373802
4187.500000	-63.693798
4203.125000	-61.908287
4218.750000	-60.673279
4234.375000	-60.241405
4250.000000	-61.209034
4265.625000	-63.299999
4281.250000	-65.505722
4296.875000	-67.350258
4312.500000	-68.869652
4328.125000	-69.837624
4343.750000	-70.582535
4359.375000	-71.235168
4375.000000	-71.390671
4390.625000	-71.522850
4406.250000	-71.283134
4421.875000	-70.503685
4437.500000	-69.729279
4453.125000	-68.570946
4468.750000	-67.014580
4484.375000	-65.044930
4500.000000	-63.306900
4515.625000	-63.061432
4531.250000	-64.589920
4546.875000	-66.839203
4562.500000	-69.045700
4578.125000	-70.975105
4593.750000	-72.471024
4609.375000	-73.401398
4625.000000	-74.365067
4640.625000	-74.583443
4656.250000	-74.729836
4671.875000	-74.701401
4687.500000	-74.360786
4703.125000	-73.849312
4718.750000	-73.070160
4734.375000	-71.744789
4750.000000	-69.727211
4765.625000	-67.604652
4781.250000	-65.845764
4796.875000	-65.725357
4812.500000	-67.468712
4828.125000	-70.134407
4843.750000	-72.285454
4859.375000	-74.037155
4875.000000	-75.662384
4890.625000	-76.624031
4906.250000	-77.104584
4921.875000	-77.514847
4937.500000	-77.812714
4953.125000	-77.986542
4968.750000	-77.279381
4984.375000	-76.525558
5000.000000	-75.489883
5015.625000	-74.156845
5031.250000	-72.360146
5046.875000	-69.977127
5062.500000	-68.142761
5078.125000	-68.266197
5093.750000	-70.476273
5109.375000	-73.177101
5125.000000	-75.478569
5140.625000	-77.335777
5156.250000	-78.420227
5171.875000	-79.610886
5187.500000	-80.263802
5203.125000	-80.362701
5218.750000	-80.255898
5234.375000	-80.031883
5250.000000	-79.796440
5265.625000	-79.324593
5281.250000	-78.153961
5296.875000	-76.357460
5312.500000	-74.147751
5328.125000	-71.645409
5343.750000	-70.197189
5359.375000	-71.046143
5375.000000	-73.430405
5390.625000	-76.108162
5406.250000	-78.396706
5421.875000	-79.805832
5437.500000	-80.730721
5453.125000	-81.779961
5468.750000	-82.586143
5484.375000	-82.800766
5500.000000	-82.506134
5515.625000	-82.269142
5531.250000	-81.997070
5546.875000	-81.246292
5562.500000	-80.089485
5578.125000	-78.467987
5593.750000	-76.322884
5609.375000	-74.529099
5625.000000	-73.727280
5640.625000	-74.540550
5656.250000	-76.495934
5671.875000	-78.647270
5687.500000	-80.372498
5703.125000	-81.719131
5718.750000	-82.919380
5734.375000	-83.627510
5750.000000	-84.316727
5765.625000	-84.390816
5781.250000	-84.315147
5796.875000	-84.110878
5812.500000	-83.586052
5828.125000	-82.773621
5843.750000	-81.955429
5859.375000	-80.439270
5875.000000	-78.768013
5890.625000	-77.020744
5906.250000	-76.574829
5921.875000	-77.565483
5937.500000	-79.168953
5953.125000	-81.271034
5968.750000	-83.000542
5984.375000	-84.113976
6000.000000	-85.127884
6015.625000	-85.427597
6031.250000	-86.006454
6046.875000	-86.300827
6062.500000	-86.087883
6078.125000	-85.813110
6093.750000	-85.805496
6109.375000	-85.053085
6125.000000	-84.195007
6140.625000	-82.846474
6156.250000	-81.600700
6171.875000	-80.868095
6187.500000	-80.394547
6203.125000	-80.995041
6218.750000	-82.325104
6234.375000	-83.719223
6250.000000	-85.026619
6265.625000	-86.217163
6281.250000	-86.980675
6296.875000	-87.489365
6312.500000	-88.020081
6328.125000	-88.484703
6343.750000	-88.482872
6359.375000	-88.233414
6375.000000	-87.979301
6390.625000	-87.718605
6406.250000	-87.082260
6421.875000	-86.227325
6437.500000	-85.277695
6453.125000	-84.148544
6468.750000	-83.481445
6484.375000	-83.610458
6500.000000	-84.278397
6515.625000	-85.727791
6531.250000	-87.332703
6546.875000	-88.082321
6562.500000	-89.056656
6578.125000	-89.980682
6593.750000	-90.464119
6609.375000	-90.502113
6625.000000	-90.688263
6640.625000	-90.864220
6656.250000	-90.737740
6671.875000	-90.527573
6687.500000	-90.025795
6703.125000	-89.618919
6718.750000	-89.175949
6734.375000	-88.197372
6750.000000	-87.476692
6765.625000	-87.204041
6781.250000	-87.621346
6796.875000	-88.936760
6812.500000	-90.256966
6828.125000	-91.336296
6843.750000	-92.114616
6859.375000	-92.553650
6875.000000	-93.130409
6890.625000	-93.398224
6906.250000	-93.581757
6921.875000	-93.629128
6937.500000	-93.529907
6953.125000	-93.450661
6968.750000	-93.417976
6984.375000	-93.250084
7000.000000	-92.712372
7015.625000	-92.465767
7031.250000	-92.346336
7046.875000	-91.791809
7062.500000	-92.134102
7078.125000	-93.194717
7093.750000	-93.956543
7109.375000	-94.126953
7125.000000	-94.402733
7140.625000	-94.725250
7156.250000	-94.652222
7171.875000	-94.799858
7187.500000	-94.926376
7203.125000	-95.059052
7218.750000	-94.983047
7234.375000	-95.003616
7250.000000	-95.051903
7265.625000	-95.075447
7281.250000	-94.909233
7296.875000	-94.834000
7312.500000	-94.625031
7328.125000	-94.736435
7343.750000	-94.786438
7359.375000	-95.067719
7375.000000	-94.919220
7390.625000	-94.711899
7406.250000	-94.778183
7421.875000	-94.999504
7437.500000	-95.071304
7453.125000	-95.176483
7468.750000	-95.185173
7484.375000	-95.512070
7500.000000	-95.636772
7515.625000	-95.847336
7531.250000	-96.043175
7546.875000	-96.344147
7562.500000	-96.945961
7578.125000	-97.262939
7593.750000	-97.500420
7609.375000	-98.719467
7625.000000	-99.598709
7640.625000	-100.489540
7656.250000	-101.756599
7671.875000	-103.527718
7687.500000	-105.453453
7703.125000	-107.382347
7718.750000	-109.680946
7734.375000	-112.501854
7750.000000	-115.005386
7765.625000	-117.891991
7781.250000	-121.466881
7796.875000	-125.184120
7812.500000	-129.070374
7828.125000	-133.541855
7843.750000	-138.453232
7859.375000	-143.807770
7875.000000	-149.721359
7890.625000	-156.348557
7906.250000	-163.720657
7921.875000	-170.911285
7937.500000	-177.087799
7953.125000	-180.003006
7968.750000	-181.097641
7984.375000	-181.617630
