Frequency (Hz)	Level (dB)
15.625000	-77.549423
31.250000	-74.673485
46.875000	-72.326874
62.500000	-70.415421
78.125000	-68.898575
93.750000	-69.201439
109.375000	-67.043228
125.000000	-66.397224
140.625000	-74.088242
156.250000	-76.780243
171.875000	-76.488396
187.500000	-75.956573
203.125000	-75.058136
218.750000	-72.152924
234.375000	-68.074829
250.000000	-66.118980
265.625000	-64.099304
281.250000	-65.031013
296.875000	-68.766930
312.500000	-72.255341
328.125000	-74.603119
343.750000	-76.172501
359.375000	-76.949783
375.000000	-77.813782
390.625000	-78.182808
406.250000	-78.704514
421.875000	-78.624344
437.500000	-78.060066
453.125000	-77.547737
468.750000	-76.957298
484.375000	-76.117340
500.000000	-74.518524
515.625000	-72.809692
531.250000	-70.172600
546.875000	-68.164162
562.500000	-68.558632
578.125000	-70.851646
593.750000	-73.305389
609.375000	-75.173218
625.000000	-76.466599
640.625000	-77.121330
656.250000	-77.622139
671.875000	-78.093613
687.500000	-78.217964
703.125000	-78.058144
718.750000	-77.559891
734.375000	-76.673370
750.000000	-75.602394
765.625000	-73.918190
781.250000	-71.820183
796.875000	-70.549911
812.500000	-70.138084
828.125000	-70.262749
843.750000	-70.859276
859.375000	-71.751991
875.000000	-73.056801
890.625000	-74.653282
906.250000	-75.563667
921.875000	-76.512833
937.500000	-77.128891
953.125000	-77.051353
968.750000	-76.899956
984.375000	-76.618851
1000.000000	-76.059837
1015.625000	-75.603783
1031.250000	-75.208488
1046.875000	-74.329666
1062.500000	-73.162476
1078.125000	-72.943848
1093.750000	-72.871986
1109.375000	-72.936852
1125.000000	-73.117188
1140.625000	-73.424423
1156.250000	-73.591858
1171.875000	-73.956802
1187.500000	-74.438873
1203.125000	-74.702377
1218.750000	-74.749016
1234.375000	-74.889969
1250.000000	-74.923203
1265.625000	-75.023911
1281.250000	-74.758217
1296.875000	-74.663841
1312.500000	-74.243515
1328.125000	-73.534355
1343.750000	-72.524818
1359.375000	-70.872902
1375.000000	-68.628883
1390.625000	-66.004021
1406.250000	-63.240284
1421.875000	-62.031631
1437.500000	-63.265423
1453.125000	-65.804298
1468.750000	-68.097664
1484.375000	-70.093262
1500.000000	-71.190689
1515.625000	-71.604568
1531.250000	-71.592888
1546.875000	-71.685844
1562.500000	-71.567970
1578.125000	-71.202148
1593.750000	-70.568359
1609.375000	-69.149872
1625.000000	-67.263145
1640.625000	-65.030746
1656.250000	-62.839466
1671.875000	-61.101494
1687.500000	-61.105801
1703.125000	-62.822845
1718.750000	-64.847466
1734.375000	-66.961746
1750.000000	-68.385162
1765.625000	-69.351997
1781.250000	-70.034691
1796.875000	-70.217644
1812.500000	-70.215599
1828.125000	-70.299492
1843.750000	-70.092628
1859.375000	-69.149727
1875.000000	-68.128006
1890.625000	-67.354607
1906.250000	-66.031242
1921.875000	-64.589050
1937.500000	-63.541603
1953.125000	-63.075256
1968.750000	-63.868050
1984.375000	-65.240166
2000.000000	-66.328896
2015.625000	-67.440529
2031.250000	-68.491211
2046.875000	-68.819336
2062.500000	-69.295944
2078.125000	-69.735863
2093.750000	-69.882996
2109.375000	-69.931152
2125.000000	-69.736893
2140.625000	-69.153984
2156.250000	-68.793564
2171.875000	-68.358833
2187.500000	-67.800018
2203.125000	-67.272179
2218.750000	-66.709633
2234.375000	-65.976044
2250.000000	-65.564514
2265.625000	-65.646362
2281.250000	-66.053444
2296.875000	-66.722374
2312.500000	-67.663887
2328.125000	-68.763596
2343.750000	-69.284843
2359.375000	-69.807465
2375.000000	-69.947090
2390.625000	-70.140945
2406.250000	-70.494347
2421.875000	-70.268883
2437.500000	-70.104233
2453.125000	-69.759659
2468.750000	-69.090446
2484.375000	-68.352699
2500.000000	-67.488564
2515.625000	-66.408188
2531.250000	-65.713806
2546.875000	-65.356125
2562.500000	-65.113609
2578.125000	-65.690872
2593.750000	-66.783180
2609.375000	-67.701859
2625.000000	-68.752792
2640.625000	-69.670715
2656.250000	-70.304947
2671.875000	-70.417000
2687.500000	-70.740746
2703.125000	-70.761948
2718.750000	-70.328552
2734.375000	-70.077072
2750.000000	-69.545074
2765.625000	-68.549400
2781.250000	-67.410110
2796.875000	-65.831970
2812.500000	-64.043137
2828.125000	-63.094479
2843.750000	-63.401180
2859.375000	-64.407524
2875.000000	-65.662064
2890.625000	-67.353798
2906.250000	-68.711159
2921.875000	-69.496773
2937.500000	-70.412895
2953.125000	-71.094673
2968.750000	-71.181801
2984.375000	-71.026558
3000.000000	-70.812477
3015.625000	-70.435699
3031.250000	-69.383316
3046.875000	-68.401115
3062.500000	-66.655334
3078.125000	-64.621796
3093.750000	-62.730640
3109.375000	-61.757515
3125.000000	-62.353535
3140.625000	-63.720146
3156.250000	-65.689293
3171.875000	-67.374939
3187.500000	-68.752869
3203.125000	-69.765633
3218.750000	-70.277252
3234.375000	-70.679695
3250.000000	-71.057037
3265.625000	-70.940750
3281.250000	-70.398911
3296.875000	-69.881775
3312.500000	-69.064209
3328.125000	-67.765427
3343.750000	-66.072205
3359.375000	-63.525005
3375.000000	-61.575829
3390.625000	-60.494488
3406.250000	-61.336102
3421.875000	-63.525322
3437.500000	-65.505386
3453.125000	-67.365105
3468.750000	-68.739456
3484.375000	-69.678947
3500.000000	-70.221474
3515.625000	-70.690681
3531.250000	-70.656219
3546.875000	-70.456055
3562.500000	-70.032089
3578.125000	-69.231346
3593.750000	-67.988045
3609.375000	-66.345161
3625.000000	-64.490921
3640.625000	-62.280018
3656.250000	-60.437698
3671.875000	-60.312237
3687.500000	-61.599072
3703.125000	-63.606869
3718.750000	-65.577576
3734.375000	-67.243141
3750.000000	-68.568817
3765.625000	-69.232697
3781.250000	-69.765480
3796.875000	-70.045059
3812.500000	-70.311310
3828.125000	-69.804031
3843.750000	-69.258049
3859.375000	-68.715668
3875.000000	-67.754494
3890.625000	-66.540260
3906.250000	-64.630585
3921.875000	-62.704659
3937.500000	-61.274746
3953.125000	-60.914772
3968.750000	-62.144154
3984.375000	-64.188408
4000.000000	-66.263092
4015.625000	-67.792381
4031.250000	-69.062439
4046.875000	-70.271484
4062.500000	-70.959229
4078.125000	-71.042336
4093.750000	-71.130699
4109.375000	-71.443893
4125.000000	-70.984016
4140.625000	-70.518646
4156.250000	-69.766060
4171.875000	-68.550873
4187.500000	-66.932800
4203.125000	-65.181511
4218.750000	-63.731617
4234.375000	-62.989033
4250.000000	-64.029396
4265.625000	-66.302261
4281.250000	-68.187843
4296.875000	-69.982094
4312.500000	-71.393547
4328.125000	-72.599434
4343.750000	-73.509933
4359.375000	-73.735687
4375.000000	-73.808784
4390.625000	-74.075775
4406.250000	-74.011208
4421.875000	-73.353111
4437.500000	-72.411835
4453.125000	-71.084839
4468.750000	-69.508148
4484.375000	-67.627991
4500.000000	-65.961586
4515.625000	-65.445251
4531.250000	-67.176376
4546.875000	-69.482361
4562.500000	-71.269287
4578.125000	-73.222534
4593.750000	-74.841293
4609.375000	-75.880692
4625.000000	-76.439972
4640.625000	-76.982689
4656.250000	-77.302567
4671.875000	-77.371735
4687.500000	-76.960548
4703.125000	-76.431816
4718.750000	-75.644066
4734.375000	-74.262360
4750.000000	-72.470268
4765.625000	-70.435066
4781.250000	-68.423256
4796.875000	-68.210663
4812.500000	-69.917908
4828.125000	-72.263809
4843.750000	-74.487022
4859.375000	-76.376984
4875.000000	-77.812424
4890.625000	-78.928879
4906.250000	-79.777374
4921.875000	-80.117889
4937.500000	-80.129112
4953.125000	-80.114662
4968.750000	-79.647873
4984.375000	-79.142967
5000.000000	-78.307610
5015.625000	-76.751900
5031.250000	-74.933586
5046.875000	-72.714966
5062.500000	-70.620750
5078.125000	-70.618355
5093.750000	-72.780975
5109.375000	-75.333588
5125.000000	-77.483894
5140.625000	-79.326660
5156.250000	-80.521889
5171.875000	-81.410294
5187.500000	-82.189392
5203.125000	-82.288475
5218.750000	-82.368088
5234.375000	-82.364693
5250.000000	-82.207275
5265.625000	-81.517120
5281.250000	-80.466202
5296.875000	-78.915329
5312.500000	-76.774406
5328.125000	-74.611778
5343.750000	-73.149620
5359.375000	-73.365395
5375.000000	-75.724434
5390.625000	-78.308517
5406.250000	-80.336021
5421.875000	-82.033928
5437.500000	-83.240555
5453.125000	-84.184364
5468.750000	-84.554039
5484.375000	-84.564461
5500.000000	-84.654602
5515.625000	-84.528809
5531.250000	-84.165993
5546.875000	-83.371315
5562.500000	-82.314125
5578.125000	-80.933739
5593.750000	-78.941025
5609.375000	-77.094574
5625.000000	-75.984283
5640.625000	-76.741150
5656.250000	-78.845169
5671.875000	-80.797043
5687.500000	-82.403252
5703.125000	-83.977196
5718.750000	-85.106148
5734.375000	-86.039284
5750.000000	-86.269524
5765.625000	-86.504410
5781.250000	-86.565224
5796.875000	-86.405174
5812.500000	-85.985596
5828.125000	-85.318840
5843.750000	-84.136795
5859.375000	-82.618835
5875.000000	-80.883232
5890.625000	-79.487137
5906.250000	-79.003365
5921.875000	-79.742111
5937.500000	-81.471420
5953.125000	-83.205391
5968.750000	-84.953751
5984.375000	-86.172447
6000.000000	-86.914001
6015.625000	-87.588913
6031.250000	-88.018265
6046.875000	-88.217155
6062.500000	-87.971016
6078.125000	-87.861488
6093.750000	-87.778702
6109.375000	-86.983253
6125.000000	-86.062965
6140.625000	-84.925804
6156.250000	-83.969658
6171.875000	-83.113136
6187.500000	-82.590691
6203.125000	-83.186188
6218.750000	-84.586960
6234.375000	-85.959961
6250.000000	-87.156441
6265.625000	-87.868256
6281.250000	-88.778618
6296.875000	-89.258575
6312.500000	-89.554543
6328.125000	-89.863037
6343.750000	-89.903297
6359.375000	-90.100334
6375.000000	-89.838524
6390.625000	-89.507355
6406.250000	-89.062180
6421.875000	-88.084747
6437.500000	-87.285080
6453.125000	-86.492790
6468.750000	-85.736992
6484.375000	-85.859657
6500.000000	-86.509476
6515.625000	-87.635582
6531.250000	-88.821312
6546.875000	-89.926582
6562.500000	-90.837257
6578.125000	-91.297188
6593.750000	-91.703690
6609.375000	-92.063385
6625.000000	-92.514374
6640.625000	-92.375267
6656.250000	-92.147110
6671.875000	-92.078926
6687.500000	-91.942055
6703.125000	-91.271812
6718.750000	-90.580978
6734.375000	-89.874847
6750.000000	-89.011505
6765.625000	-89.037437
6781.250000	-89.586342
6796.875000	-90.399292
6812.500000	-91.529076
6828.125000	-92.448219
6843.750000	-93.320587
6859.375000	-93.671783
6875.000000	-93.919243
6890.625000	-94.204117
6906.250000	-94.127434
6921.875000	-94.328178
6937.500000	-94.319992
6953.125000	-94.541557
6968.750000	-94.256416
6984.375000	-93.796021
7000.000000	-93.623962
7015.625000	-93.362938
7031.250000	-93.089577
7046.875000	-92.740013
7062.500000	-92.840454
7078.125000	-93.632362
7093.750000	-94.137413
7109.375000	-94.641220
7125.000000	-94.748413
7140.625000	-94.804047
7156.250000	-94.836281
7171.875000	-95.024376
7187.500000	-94.683220
7203.125000	-94.731506
7218.750000	-94.967590
7234.375000	-95.123436
7250.000000	-94.934441
7265.625000	-94.691811
7281.250000	-94.695419
7296.875000	-94.828331
7312.500000	-94.976456
7328.125000	-94.924019
7343.750000	-94.839294
7359.375000	-94.885063
7375.000000	-94.948494
7390.625000	-94.923393
7406.250000	-95.327583
7421.875000	-95.579643
7437.500000	-95.624229
7453.125000	-95.382545
7468.750000	-95.334297
7484.375000	-95.338829
7500.000000	-95.404411
7515.625000	-95.721931
7531.250000	-95.833359
7546.875000	-95.949448
7562.500000	-96.753868
7578.125000	-97.029457
7593.750000	-97.585930
7609.375000	-98.523811
7625.000000	-99.673309
7640.625000	-100.936264
7656.250000	-102.237389
7671.875000	-103.872223
7687.500000	-105.544418
7703.125000	-107.381561
7718.750000	-109.481339
7734.375000	-112.042427
7750.000000	-115.235649
7765.625000	-117.843094
7781.250000	-121.151054
7796.875000	-124.920067
7812.500000	-129.237991
7828.125000	-133.941620
7843.750000	-138.587708
7859.375000	-143.893967
7875.000000	-149.904785
7890.625000	-156.532135
7906.250000	-163.510132
7921.875000	-170.934265
7937.500000	-177.009155
7953.125000	-180.226639
7968.750000	-181.317261
7984.375000	-181.804382
