Frequency (Hz)	Level (dB)
15.625000	-61.141125
31.250000	-55.765663
46.875000	-54.138088
62.500000	-54.172092
78.125000	-54.402283
93.750000	-55.080986
109.375000	-55.869408
125.000000	-56.258209
140.625000	-57.393341
156.250000	-57.752644
171.875000	-57.091335
187.500000	-56.625317
203.125000	-55.897633
218.750000	-54.025600
234.375000	-51.274395
250.000000	-47.221394
265.625000	-44.927280
281.250000	-46.511467
296.875000	-50.582405
312.500000	-54.184444
328.125000	-56.885921
343.750000	-58.745884
359.375000	-60.101593
375.000000	-60.863415
390.625000	-61.512882
406.250000	-62.013638
421.875000	-61.979210
437.500000	-61.652588
453.125000	-61.098232
468.750000	-60.271812
484.375000	-59.412258
500.000000	-57.975471
515.625000	-56.012268
531.250000	-53.372940
546.875000	-51.808754
562.500000	-52.202187
578.125000	-54.376255
593.750000	-57.209614
609.375000	-59.394508
625.000000	-60.442455
640.625000	-61.582718
656.250000	-62.489117
671.875000	-63.022728
687.500000	-63.132759
703.125000	-63.063148
718.750000	-62.659927
734.375000	-61.751839
750.000000	-60.562954
765.625000	-58.850750
781.250000	-56.691841
796.875000	-55.107151
812.500000	-54.889885
828.125000	-55.287277
843.750000	-55.816517
859.375000	-57.002258
875.000000	-58.669289
890.625000	-60.296932
906.250000	-61.560726
921.875000	-62.422337
937.500000	-63.146362
953.125000	-63.488262
968.750000	-63.491230
984.375000	-62.931198
1000.000000	-62.358772
1015.625000	-61.965511
1031.250000	-61.393467
1046.875000	-60.539642
1062.500000	-59.616352
1078.125000	-58.960121
1093.750000	-59.026028
1109.375000	-59.205658
1125.000000	-59.402660
1140.625000	-59.633938
1156.250000	-60.042336
1171.875000	-60.503166
1187.500000	-60.955112
1203.125000	-61.325382
1218.750000	-61.429150
1234.375000	-61.649223
1250.000000	-61.764320
1265.625000	-61.908642
1281.250000	-62.001377
1296.875000	-61.852345
1312.500000	-61.349174
1328.125000	-60.486446
1343.750000	-59.578262
1359.375000	-58.171741
1375.000000	-56.122978
1390.625000	-53.286713
1406.250000	-50.597008
1421.875000	-49.584118
1437.500000	-50.795975
1453.125000	-53.267338
1468.750000	-55.581341
1484.375000	-57.366375
1500.000000	-58.553722
1515.625000	-59.215164
1531.250000	-59.613850
1546.875000	-59.675373
1562.500000	-59.488625
1578.125000	-59.109550
1593.750000	-58.152050
1609.375000	-56.969032
1625.000000	-55.406887
1640.625000	-52.952168
1656.250000	-50.691639
1671.875000	-49.345173
1687.500000	-49.607643
1703.125000	-51.328461
1718.750000	-53.430687
1734.375000	-55.410603
1750.000000	-56.625008
1765.625000	-57.815899
1781.250000	-58.353264
1796.875000	-58.594051
1812.500000	-58.864517
1828.125000	-58.706066
1843.750000	-58.239613
1859.375000	-57.571011
1875.000000	-56.714657
1890.625000	-55.819908
1906.250000	-54.536800
1921.875000	-53.242779
1937.500000	-52.129726
1953.125000	-51.728184
1968.750000	-52.352249
1984.375000	-53.717693
2000.000000	-54.913483
2015.625000	-56.216389
2031.250000	-57.216778
2046.875000	-57.904430
2062.500000	-58.328491
2078.125000	-58.923477
2093.750000	-58.926109
2109.375000	-59.000164
2125.000000	-58.994232
2140.625000	-58.754189
2156.250000	-58.023521
2171.875000	-57.270466
2187.500000	-57.144783
2203.125000	-56.359539
2218.750000	-55.511292
2234.375000	-55.098717
2250.000000	-55.012508
2265.625000	-55.023411
2281.250000	-55.322613
2296.875000	-55.952877
2312.500000	-56.629440
2328.125000	-57.685623
2343.750000	-58.535007
2359.375000	-59.363197
2375.000000	-59.716362
2390.625000	-59.797543
2406.250000	-59.808437
2421.875000	-59.784878
2437.500000	-59.599514
2453.125000	-59.204548
2468.750000	-58.475616
2484.375000	-58.052559
2500.000000	-56.773556
2515.625000	-55.863209
2531.250000	-55.058292
2546.875000	-54.653519
2562.500000	-54.726440
2578.125000	-55.331558
2593.750000	-56.292858
2609.375000	-57.452492
2625.000000	-58.298138
2640.625000	-59.300190
2656.250000	-59.837955
2671.875000	-60.390121
2687.500000	-60.861809
2703.125000	-60.689510
2718.750000	-60.217300
2734.375000	-59.893169
2750.000000	-59.215828
2765.625000	-58.240997
2781.250000	-57.390591
2796.875000	-55.643192
2812.500000	-54.226097
2828.125000	-53.333248
2843.750000	-53.314281
2859.375000	-54.530537
2875.000000	-55.978279
2890.625000	-57.412994
2906.250000	-58.809166
2921.875000	-59.777454
2937.500000	-60.745861
2953.125000	-61.209808
2968.750000	-61.548405
2984.375000	-61.414886
3000.000000	-61.036877
3015.625000	-60.502781
3031.250000	-59.517693
3046.875000	-58.213600
3062.500000	-56.841309
3078.125000	-54.863907
3093.750000	-52.942894
3109.375000	-51.940029
3125.000000	-52.546135
3140.625000	-54.326347
3156.250000	-56.309395
3171.875000	-57.828720
3187.500000	-59.211838
3203.125000	-60.459663
3218.750000	-61.378910
3234.375000	-61.671566
3250.000000	-61.652897
3265.625000	-61.356396
3281.250000	-60.929897
3296.875000	-60.272884
3312.500000	-59.564781
3328.125000	-58.182373
3343.750000	-56.338448
3359.375000	-54.197617
3375.000000	-52.024570
3390.625000	-51.166340
3406.250000	-52.156639
3421.875000	-54.366734
3437.500000	-56.317097
3453.125000	-58.132595
3468.750000	-59.426960
3484.375000	-60.582848
3500.000000	-61.168221
3515.625000	-61.440647
3531.250000	-61.293488
3546.875000	-60.926529
3562.500000	-60.483540
3578.125000	-59.841892
3593.750000	-58.725128
3609.375000	-57.245792
3625.000000	-55.220585
3640.625000	-53.153210
3656.250000	-51.562031
3671.875000	-51.077129
3687.500000	-52.346222
3703.125000	-54.615726
3718.750000	-56.880428
3734.375000	-58.321011
3750.000000	-59.204567
3765.625000	-60.154251
3781.250000	-60.751289
3796.875000	-61.003445
3812.500000	-61.109951
3828.125000	-60.933098
3843.750000	-60.550694
3859.375000	-59.737141
3875.000000	-58.813679
3890.625000	-57.544601
3906.250000	-55.778103
3921.875000	-53.472843
3937.500000	-51.940971
3953.125000	-51.979340
3968.750000	-53.364281
3984.375000	-55.434124
4000.000000	-57.314377
4015.625000	-59.128029
4031.250000	-60.216438
4046.875000	-61.242493
4062.500000	-61.673534
4078.125000	-62.124729
4093.750000	-62.374062
4109.375000	-62.663044
4125.000000	-62.488762
4140.625000	-61.666729
4156.250000	-60.713345
4171.875000	-59.486176
4187.500000	-57.919334
4203.125000	-56.195095
4218.750000	-54.578754
4234.375000	-54.119232
4250.000000	-55.390678
4265.625000	-57.574749
4281.250000	-59.583370
4296.875000	-61.366302
4312.500000	-63.064495
4328.125000	-64.173279
4343.750000	-64.661522
4359.375000	-65.113411
4375.000000	-65.391006
4390.625000	-65.457420
4406.250000	-65.314468
4421.875000	-64.587425
4437.500000	-63.727875
4453.125000	-62.344933
4468.750000	-60.709354
4484.375000	-58.716702
4500.000000	-57.184750
4515.625000	-57.035770
4531.250000	-58.440392
4546.875000	-60.692184
4562.500000	-62.771217
4578.125000	-65.003242
4593.750000	-66.668938
4609.375000	-67.422134
4625.000000	-68.242004
4640.625000	-68.681755
4656.250000	-68.721489
4671.875000	-68.507248
4687.500000	-68.393272
4703.125000	-67.713196
4718.750000	-67.169846
4734.375000	-65.832977
4750.000000	-63.783325
4765.625000	-61.466202
4781.250000	-59.614628
4796.875000	-59.593052
4812.500000	-61.464741
4828.125000	-64.226654
4843.750000	-66.634903
4859.375000	-68.501816
4875.000000	-69.759544
4890.625000	-70.702965
4906.250000	-71.429993
4921.875000	-71.712555
4937.500000	-71.787727
4953.125000	-71.622025
4968.750000	-71.569405
4984.375000	-71.045105
5000.000000	-69.609818
5015.625000	-67.962822
5031.250000	-66.221794
5046.875000	-63.745220
5062.500000	-62.075592
5078.125000	-62.706425
5093.750000	-64.563530
5109.375000	-67.330757
5125.000000	-69.368225
5140.625000	-70.987343
5156.250000	-72.594032
5171.875000	-73.675888
5187.500000	-74.257820
5203.125000	-74.736801
5218.750000	-74.474869
5234.375000	-74.203308
5250.000000	-73.897842
5265.625000	-73.243599
5281.250000	-71.837349
5296.875000	-70.365150
5312.500000	-68.206955
5328.125000	-65.906395
5343.750000	-64.296394
5359.375000	-65.132332
5375.000000	-67.544762
5390.625000	-70.157982
5406.250000	-72.528168
5421.875000	-74.012260
5437.500000	-75.163727
5453.125000	-75.957596
5468.750000	-76.432671
5484.375000	-76.755264
5500.000000	-76.737862
5515.625000	-76.432747
5531.250000	-75.794189
5546.875000	-75.033714
5562.500000	-74.123894
5578.125000	-72.440742
5593.750000	-70.414017
5609.375000	-68.367729
5625.000000	-67.757851
5640.625000	-68.310562
5656.250000	-70.450325
5671.875000	-72.689598
5687.500000	-74.507721
5703.125000	-76.133949
5718.750000	-77.123299
5734.375000	-78.081093
5750.000000	-78.784790
5765.625000	-78.763039
5781.250000	-78.866623
5796.875000	-78.640915
5812.500000	-78.088623
5828.125000	-77.155159
5843.750000	-76.061111
5859.375000	-74.555923
5875.000000	-72.538635
5890.625000	-70.932884
5906.250000	-70.724922
5921.875000	-71.844826
5937.500000	-73.499130
5953.125000	-75.575607
5968.750000	-77.287560
5984.375000	-78.381920
6000.000000	-79.478958
6015.625000	-80.272400
6031.250000	-80.518158
6046.875000	-80.690872
6062.500000	-80.677597
6078.125000	-80.425507
6093.750000	-79.805122
6109.375000	-79.104187
6125.000000	-78.288017
6140.625000	-77.093292
6156.250000	-75.461578
6171.875000	-74.628296
6187.500000	-74.484123
6203.125000	-74.961212
6218.750000	-76.410370
6234.375000	-78.014297
6250.000000	-79.582169
6265.625000	-80.778305
6281.250000	-81.509422
6296.875000	-82.081993
6312.500000	-82.617157
6328.125000	-82.761177
6343.750000	-82.987617
6359.375000	-83.040916
6375.000000	-82.886917
6390.625000	-82.342941
6406.250000	-81.521751
6421.875000	-80.647469
6437.500000	-79.316132
6453.125000	-78.409843
6468.750000	-77.998314
6484.375000	-77.822075
6500.000000	-78.567322
6515.625000	-80.031120
6531.250000	-81.574547
6546.875000	-82.873322
6562.500000	-83.779594
6578.125000	-84.608711
6593.750000	-85.287125
6609.375000	-85.877586
6625.000000	-86.073906
6640.625000	-86.093483
6656.250000	-86.092415
6671.875000	-86.113327
6687.500000	-85.637672
6703.125000	-84.757088
6718.750000	-83.873581
6734.375000	-82.557228
6750.000000	-81.438347
6765.625000	-81.305428
6781.250000	-82.251984
6796.875000	-83.746773
6812.500000	-85.439896
6828.125000	-86.942787
6843.750000	-88.338295
6859.375000	-89.252754
6875.000000	-89.957512
6890.625000	-90.586586
6906.250000	-90.682114
6921.875000	-91.128487
6937.500000	-91.424034
6953.125000	-91.304230
6968.750000	-90.880203
6984.375000	-90.084862
7000.000000	-89.357307
7015.625000	-88.433128
7031.250000	-87.490646
7046.875000	-87.573196
7062.500000	-88.705307
7078.125000	-89.731659
7093.750000	-91.265984
7109.375000	-92.406418
7125.000000	-93.096069
7140.625000	-93.616783
7156.250000	-94.043793
7171.875000	-94.177872
7187.500000	-94.211586
7203.125000	-94.184677
7218.750000	-94.135773
7234.375000	-94.418739
7250.000000	-94.511604
7265.625000	-94.326752
7281.250000	-94.452972
7296.875000	-94.287079
7312.500000	-93.868820
7328.125000	-93.746834
7343.750000	-94.085152
7359.375000	-94.427361
7375.000000	-94.921982
7390.625000	-94.898880
7406.250000	-95.037193
7421.875000	-95.130630
7437.500000	-95.142250
7453.125000	-95.171486
7468.750000	-95.438171
7484.375000	-95.260483
7500.000000	-95.185394
7515.625000	-95.592361
7531.250000	-95.908768
7546.875000	-96.289230
7562.500000	-96.791885
7578.125000	-97.454948
7593.750000	-98.045753
7609.375000	-98.829437
7625.000000	-99.701088
7640.625000	-100.872276
7656.250000	-102.198502
7671.875000	-103.729752
7687.500000	-105.565147
7703.125000	-107.552734
7718.750000	-109.763794
7734.375000	-112.162109
7750.000000	-114.961594
7765.625000	-118.147041
7781.250000	-121.638596
7796.875000	-125.167084
7812.500000	-129.167862
7828.125000	-133.615509
7843.750000	-138.477066
7859.375000	-143.761429
7875.000000	-150.011490
7890.625000	-156.749207
7906.250000	-163.374878
7921.875000	-170.988861
7937.500000	-176.841934
7953.125000	-179.771561
7968.750000	-180.879913
7984.375000	-181.290115
