Frequency (Hz)	Level (dB)
15.625000	-76.537888
31.250000	-74.553284
46.875000	-72.373566
62.500000	-70.011322
78.125000	-66.868683
93.750000	-66.447777
109.375000	-65.499489
125.000000	-64.974838
140.625000	-71.837166
156.250000	-73.352013
171.875000	-72.326500
187.500000	-70.666031
203.125000	-68.168243
218.750000	-64.067001
234.375000	-59.386044
250.000000	-58.462784
265.625000	-60.878674
281.250000	-64.508003
296.875000	-67.449333
312.500000	-69.339470
328.125000	-70.421410
343.750000	-71.139023
359.375000	-71.404839
375.000000	-71.336578
390.625000	-70.997658
406.250000	-70.458504
421.875000	-69.720505
437.500000	-68.643654
453.125000	-67.106361
468.750000	-65.071022
484.375000	-62.333088
500.000000	-59.787838
515.625000	-59.205566
531.250000	-61.000401
546.875000	-63.612762
562.500000	-65.625771
578.125000	-66.888664
593.750000	-67.684715
609.375000	-68.241096
625.000000	-68.478409
640.625000	-68.470131
656.250000	-68.060112
671.875000	-67.195885
687.500000	-65.890320
703.125000	-64.125710
718.750000	-62.055927
734.375000	-60.328876
750.000000	-59.529079
765.625000	-59.598457
781.250000	-60.131142
796.875000	-61.166267
812.500000	-62.572659
828.125000	-63.977074
843.750000	-65.092766
859.375000	-65.825623
875.000000	-66.135170
890.625000	-66.093819
906.250000	-65.761452
921.875000	-65.210716
937.500000	-64.584824
953.125000	-63.830067
968.750000	-62.999458
984.375000	-62.158020
1000.000000	-61.536133
1015.625000	-61.263855
1031.250000	-61.227081
1046.875000	-61.224106
1062.500000	-61.288662
1078.125000	-61.597908
1093.750000	-62.043652
1109.375000	-62.362892
1125.000000	-62.476936
1140.625000	-62.542957
1156.250000	-62.572098
1171.875000	-62.476017
1187.500000	-62.284992
1203.125000	-61.967022
1218.750000	-61.393078
1234.375000	-60.465237
1250.000000	-59.093651
1265.625000	-57.174057
1281.250000	-54.617550
1296.875000	-51.756336
1312.500000	-49.983177
1328.125000	-50.491570
1343.750000	-52.673435
1359.375000	-54.954624
1375.000000	-56.644009
1390.625000	-57.772991
1406.250000	-58.432014
1421.875000	-58.704926
1437.500000	-58.628918
1453.125000	-58.208466
1468.750000	-57.448013
1484.375000	-56.306789
1500.000000	-54.747311
1515.625000	-52.746231
1531.250000	-50.484867
1546.875000	-48.739689
1562.500000	-48.526173
1578.125000	-49.913944
1593.750000	-51.922234
1609.375000	-53.702572
1625.000000	-55.036880
1640.625000	-55.956059
1656.250000	-56.522907
1671.875000	-56.773968
1687.500000	-56.737186
1703.125000	-56.418594
1718.750000	-55.826935
1734.375000	-54.964718
1750.000000	-53.848557
1765.625000	-52.529400
1781.250000	-51.184547
1796.875000	-50.176750
1812.500000	-49.885849
1828.125000	-50.412422
1843.750000	-51.469883
1859.375000	-52.663136
1875.000000	-53.742149
1890.625000	-54.611996
1906.250000	-55.237289
1921.875000	-55.641506
1937.500000	-55.840405
1953.125000	-55.842247
1968.750000	-55.659725
1984.375000	-55.311283
2000.000000	-54.818275
2015.625000	-54.202362
2031.250000	-53.505936
2046.875000	-52.771412
2062.500000	-52.062103
2078.125000	-51.481224
2093.750000	-51.215370
2109.375000	-51.419537
2125.000000	-52.038544
2140.625000	-52.860222
2156.250000	-53.689899
2171.875000	-54.403355
2187.500000	-54.965679
2203.125000	-55.354904
2218.750000	-55.563850
2234.375000	-55.589661
2250.000000	-55.432674
2265.625000	-55.088558
2281.250000	-54.540009
2296.875000	-53.802570
2312.500000	-52.892067
2328.125000	-51.883060
2343.750000	-50.928047
2359.375000	-50.285316
2375.000000	-50.209419
2390.625000	-50.747280
2406.250000	-51.688633
2421.875000	-52.744175
2437.500000	-53.711716
2453.125000	-54.497551
2468.750000	-55.071899
2484.375000	-55.423477
2500.000000	-55.546623
2515.625000	-55.425907
2531.250000	-55.044674
2546.875000	-54.396000
2562.500000	-53.450508
2578.125000	-52.188854
2593.750000	-50.660988
2609.375000	-49.123066
2625.000000	-48.135391
2640.625000	-48.225727
2656.250000	-49.351089
2671.875000	-50.934059
2687.500000	-52.444157
2703.125000	-53.668449
2718.750000	-54.576843
2734.375000	-55.173244
2750.000000	-55.471432
2765.625000	-55.492245
2781.250000	-55.229767
2796.875000	-54.666008
2812.500000	-53.765682
2828.125000	-52.486019
2843.750000	-50.790451
2859.375000	-48.766304
2875.000000	-46.957520
2890.625000	-46.334755
2906.250000	-47.317375
2921.875000	-49.245277
2937.500000	-51.185188
2953.125000	-52.744785
2968.750000	-53.886227
2984.375000	-54.655472
3000.000000	-55.099319
3015.625000	-55.237053
3031.250000	-55.077755
3046.875000	-54.608517
3062.500000	-53.813457
3078.125000	-52.646698
3093.750000	-51.025398
3109.375000	-48.927101
3125.000000	-46.634689
3140.625000	-45.146664
3156.250000	-45.452053
3171.875000	-47.291691
3187.500000	-49.497498
3203.125000	-51.341042
3218.750000	-52.706276
3234.375000	-53.643806
3250.000000	-54.221512
3265.625000	-54.480286
3281.250000	-54.433136
3296.875000	-54.084721
3312.500000	-53.421345
3328.125000	-52.395630
3343.750000	-50.951374
3359.375000	-49.024307
3375.000000	-46.691486
3390.625000	-44.626343
3406.250000	-44.040386
3421.875000	-45.326149
3437.500000	-47.534676
3453.125000	-49.591572
3468.750000	-51.163860
3484.375000	-52.281193
3500.000000	-53.011864
3515.625000	-53.402275
3531.250000	-53.483700
3546.875000	-53.270195
3562.500000	-52.750744
3578.125000	-51.904633
3593.750000	-50.690784
3609.375000	-49.055073
3625.000000	-47.005798
3640.625000	-44.881538
3656.250000	-43.609375
3671.875000	-43.991241
3687.500000	-45.718071
3703.125000	-47.765156
3718.750000	-49.508110
3734.375000	-50.828762
3750.000000	-51.761604
3765.625000	-52.364014
3781.250000	-52.671474
3796.875000	-52.694904
3812.500000	-52.443687
3828.125000	-51.897007
3843.750000	-51.029663
3859.375000	-49.792892
3875.000000	-48.140366
3890.625000	-46.132023
3906.250000	-44.266304
3921.875000	-43.545746
3937.500000	-44.502975
3953.125000	-46.525646
3968.750000	-48.629448
3984.375000	-50.364223
4000.000000	-51.682236
4015.625000	-52.637871
4031.250000	-53.270817
4046.875000	-53.607620
4062.500000	-53.676407
4078.125000	-53.469616
4093.750000	-52.967018
4109.375000	-52.137218
4125.000000	-50.923035
4140.625000	-49.273884
4156.250000	-47.287468
4171.875000	-45.587975
4187.500000	-45.240582
4203.125000	-46.602806
4218.750000	-48.863773
4234.375000	-51.050106
4250.000000	-52.811138
4265.625000	-54.147427
4281.250000	-55.113667
4296.875000	-55.760921
4312.500000	-56.110355
4328.125000	-56.166431
4343.750000	-55.922211
4359.375000	-55.353977
4375.000000	-54.410477
4390.625000	-53.029537
4406.250000	-51.169079
4421.875000	-49.049164
4437.500000	-47.618698
4453.125000	-47.967316
4468.750000	-49.970726
4484.375000	-52.448730
4500.000000	-54.577267
4515.625000	-56.217762
4531.250000	-57.426956
4546.875000	-58.278740
4562.500000	-58.804241
4578.125000	-59.035004
4593.750000	-58.966450
4609.375000	-58.582771
4625.000000	-57.860600
4640.625000	-56.740158
4656.250000	-55.136646
4671.875000	-53.041290
4687.500000	-50.927765
4703.125000	-50.034187
4718.750000	-51.143620
4734.375000	-53.547192
4750.000000	-55.980972
4765.625000	-57.925091
4781.250000	-59.382515
4796.875000	-60.424961
4812.500000	-61.108215
4828.125000	-61.484528
4843.750000	-61.547771
4859.375000	-61.305946
4875.000000	-60.744900
4890.625000	-59.798466
4906.250000	-58.407833
4921.875000	-56.528923
4937.500000	-54.384865
4953.125000	-52.913994
4968.750000	-53.188610
4984.375000	-55.101772
5000.000000	-57.505268
5015.625000	-59.580730
5031.250000	-61.176151
5046.875000	-62.330765
5062.500000	-63.128162
5078.125000	-63.613350
5093.750000	-63.804031
5109.375000	-63.703690
5125.000000	-63.295021
5140.625000	-62.552681
5156.250000	-61.428181
5171.875000	-59.886337
5187.500000	-57.986427
5203.125000	-56.201145
5218.750000	-55.517567
5234.375000	-56.482876
5250.000000	-58.518517
5265.625000	-60.647709
5281.250000	-62.411598
5296.875000	-63.761974
5312.500000	-64.729195
5328.125000	-65.363525
5343.750000	-65.695679
5359.375000	-65.751785
5375.000000	-65.505516
5390.625000	-64.958466
5406.250000	-64.090500
5421.875000	-62.856140
5437.500000	-61.278629
5453.125000	-59.576405
5468.750000	-58.381901
5484.375000	-58.442390
5500.000000	-59.767906
5515.625000	-61.648064
5531.250000	-63.429321
5546.875000	-64.873688
5562.500000	-65.961662
5578.125000	-66.724976
5593.750000	-67.200371
5609.375000	-67.423279
5625.000000	-67.358047
5640.625000	-67.058861
5656.250000	-66.482735
5671.875000	-65.601715
5687.500000	-64.434250
5703.125000	-63.052677
5718.750000	-61.734219
5734.375000	-60.978783
5750.000000	-61.189285
5765.625000	-62.273945
5781.250000	-63.740482
5796.875000	-65.162430
5812.500000	-66.372971
5828.125000	-67.311417
5843.750000	-67.976837
5859.375000	-68.397240
5875.000000	-68.581375
5890.625000	-68.512817
5906.250000	-68.223335
5921.875000	-67.713470
5937.500000	-66.927742
5953.125000	-65.887970
5968.750000	-64.643990
5984.375000	-63.373352
6000.000000	-62.454876
6015.625000	-62.325451
6031.250000	-63.078365
6046.875000	-64.387291
6062.500000	-65.817863
6078.125000	-67.090218
6093.750000	-68.134651
6109.375000	-68.906372
6125.000000	-69.402153
6140.625000	-69.655678
6156.250000	-69.658020
6171.875000	-69.412483
6187.500000	-68.918228
6203.125000	-68.123573
6218.750000	-67.035706
6234.375000	-65.673553
6250.000000	-64.220673
6265.625000	-63.185471
6281.250000	-63.144714
6296.875000	-64.189346
6312.500000	-65.833069
6328.125000	-67.521523
6343.750000	-68.966164
6359.375000	-70.098801
6375.000000	-70.935951
6390.625000	-71.475517
6406.250000	-71.775314
6421.875000	-71.815620
6437.500000	-71.592522
6453.125000	-71.066536
6468.750000	-70.212128
6484.375000	-69.032021
6500.000000	-67.546410
6515.625000	-66.029892
6531.250000	-65.196701
6546.875000	-65.616249
6562.500000	-67.163704
6578.125000	-69.140358
6593.750000	-70.993050
6609.375000	-72.503517
6625.000000	-73.689819
6640.625000	-74.562691
6656.250000	-75.148567
6671.875000	-75.463783
6687.500000	-75.505890
6703.125000	-75.282555
6718.750000	-74.767830
6734.375000	-73.918884
6750.000000	-72.730988
6765.625000	-71.234787
6781.250000	-69.853493
6796.875000	-69.391815
6812.500000	-70.347076
6828.125000	-72.314705
6843.750000	-74.522568
6859.375000	-76.444359
6875.000000	-77.962242
6890.625000	-79.126289
6906.250000	-80.060669
6921.875000	-80.684479
6937.500000	-81.110947
6953.125000	-81.245140
6968.750000	-80.980118
6984.375000	-80.551529
7000.000000	-79.753105
7015.625000	-78.538170
7031.250000	-77.108315
7046.875000	-75.959549
7062.500000	-76.037918
7078.125000	-77.605202
7093.750000	-79.961403
7109.375000	-82.313324
7125.000000	-84.163696
7140.625000	-85.785187
7156.250000	-86.953743
7171.875000	-87.805931
7187.500000	-88.496498
7203.125000	-88.797981
7218.750000	-88.784218
7234.375000	-88.747589
7250.000000	-88.611137
7265.625000	-87.939629
7281.250000	-86.985443
7296.875000	-85.784615
7312.500000	-85.211060
7328.125000	-85.910049
7343.750000	-87.834778
7359.375000	-90.015831
7375.000000	-91.778221
7390.625000	-92.864418
7406.250000	-93.546959
7421.875000	-93.868813
7437.500000	-94.398376
7453.125000	-94.507690
7468.750000	-94.328049
7484.375000	-94.397141
7500.000000	-94.657150
7515.625000	-95.075653
7531.250000	-95.138893
7546.875000	-95.417625
7562.500000	-95.626480
7578.125000	-96.009041
7593.750000	-96.919609
7609.375000	-98.063858
7625.000000	-99.242508
7640.625000	-100.810356
7656.250000	-102.088402
7671.875000	-103.449844
7687.500000	-105.381752
7703.125000	-107.317230
7718.750000	-109.511307
7734.375000	-111.968124
7750.000000	-114.777267
7765.625000	-117.946136
7781.250000	-121.646759
7796.875000	-125.131172
7812.500000	-129.109192
7828.125000	-133.624695
7843.750000	-138.615128
7859.375000	-143.823212
7875.000000	-149.627792
7890.625000	-156.072525
7906.250000	-163.340149
7921.875000	-170.023376
7937.500000	-174.348160
7953.125000	-175.965439
7968.750000	-176.410156
7984.375000	-176.546646
