Frequency (Hz)	Level (dB)
15.625000	-64.670059
31.250000	-59.444820
46.875000	-57.786152
62.500000	-57.865410
78.125000	-58.149261
93.750000	-58.998688
109.375000	-59.544544
125.000000	-59.768444
140.625000	-60.847759
156.250000	-60.872662
171.875000	-60.440331
187.500000	-59.453072
203.125000	-57.463505
218.750000	-54.030144
234.375000	-50.413353
250.000000	-49.711285
265.625000	-52.965275
281.250000	-57.258869
296.875000	-60.255741
312.500000	-62.690094
328.125000	-64.146553
343.750000	-65.245300
359.375000	-65.817490
375.000000	-65.952232
390.625000	-66.169556
406.250000	-65.822227
421.875000	-65.086281
437.500000	-64.244408
453.125000	-63.228012
468.750000	-61.509037
484.375000	-59.099834
500.000000	-56.991970
515.625000	-56.569454
531.250000	-58.537186
546.875000	-61.385803
562.500000	-63.697662
578.125000	-65.416885
593.750000	-66.148453
609.375000	-66.684692
625.000000	-67.339371
640.625000	-67.561714
656.250000	-67.167152
671.875000	-66.530098
687.500000	-65.631905
703.125000	-63.904446
718.750000	-61.996975
734.375000	-60.295120
750.000000	-59.599148
765.625000	-60.079876
781.250000	-60.804291
796.875000	-62.251980
812.500000	-63.733189
828.125000	-65.182159
843.750000	-66.346527
859.375000	-67.314278
875.000000	-67.759399
890.625000	-67.978775
906.250000	-67.736961
921.875000	-67.035629
937.500000	-66.553284
953.125000	-65.825211
968.750000	-65.036766
984.375000	-63.859577
1000.000000	-63.396946
1015.625000	-63.506191
1031.250000	-63.909859
1046.875000	-64.790352
1062.500000	-65.355515
1078.125000	-65.633614
1093.750000	-65.917648
1109.375000	-66.374077
1125.000000	-66.468521
1140.625000	-66.594879
1156.250000	-66.892151
1171.875000	-67.107315
1187.500000	-67.031792
1203.125000	-66.683022
1218.750000	-66.125656
1234.375000	-65.067619
1250.000000	-63.665058
1265.625000	-61.855804
1281.250000	-59.559105
1296.875000	-56.785854
1312.500000	-55.168587
1328.125000	-56.205101
1343.750000	-58.406193
1359.375000	-60.776485
1375.000000	-62.292233
1390.625000	-63.425232
1406.250000	-64.222542
1421.875000	-64.465500
1437.500000	-64.635132
1453.125000	-64.381271
1468.750000	-63.161346
1484.375000	-61.951347
1500.000000	-60.612793
1515.625000	-58.424305
1531.250000	-56.136383
1546.875000	-54.857262
1562.500000	-55.150902
1578.125000	-56.843124
1593.750000	-59.073772
1609.375000	-60.813183
1625.000000	-62.229488
1640.625000	-63.262642
1656.250000	-63.704708
1671.875000	-63.994946
1687.500000	-63.930496
1703.125000	-63.476250
1718.750000	-62.860760
1734.375000	-62.069580
1750.000000	-61.031521
1765.625000	-59.469700
1781.250000	-58.167065
1796.875000	-57.296745
1812.500000	-57.455494
1828.125000	-58.357346
1843.750000	-59.559227
1859.375000	-60.802254
1875.000000	-61.941257
1890.625000	-62.568264
1906.250000	-63.307625
1921.875000	-64.080353
1937.500000	-64.046089
1953.125000	-64.163994
1968.750000	-64.131393
1984.375000	-63.628159
2000.000000	-63.031124
2015.625000	-62.645149
2031.250000	-61.687080
2046.875000	-60.825546
2062.500000	-60.321766
2078.125000	-60.081921
2093.750000	-60.117786
2109.375000	-60.657665
2125.000000	-61.345493
2140.625000	-62.203526
2156.250000	-63.029877
2171.875000	-63.716427
2187.500000	-64.243828
2203.125000	-64.657921
2218.750000	-64.899063
2234.375000	-64.995720
2250.000000	-64.859299
2265.625000	-64.384651
2281.250000	-63.577827
2296.875000	-62.858421
2312.500000	-62.008720
2328.125000	-61.012585
2343.750000	-60.236755
2359.375000	-59.969139
2375.000000	-60.310207
2390.625000	-61.090443
2406.250000	-62.144306
2421.875000	-63.345837
2437.500000	-64.182533
2453.125000	-64.620811
2468.750000	-65.264595
2484.375000	-65.660553
2500.000000	-65.697533
2515.625000	-65.485771
2531.250000	-65.083015
2546.875000	-64.325478
2562.500000	-63.394753
2578.125000	-62.104195
2593.750000	-60.268608
2609.375000	-59.072594
2625.000000	-58.786518
2640.625000	-59.317272
2656.250000	-60.934673
2671.875000	-62.423725
2687.500000	-64.012329
2703.125000	-65.006439
2718.750000	-65.536072
2734.375000	-66.246193
2750.000000	-66.617798
2765.625000	-66.343887
2781.250000	-66.023247
2796.875000	-65.440186
2812.500000	-64.017586
2828.125000	-62.927540
2843.750000	-61.252743
2859.375000	-59.100426
2875.000000	-57.822052
2890.625000	-57.919849
2906.250000	-59.425125
2921.875000	-61.335869
2937.500000	-63.253326
2953.125000	-64.879822
2968.750000	-65.907433
2984.375000	-66.712662
3000.000000	-66.911110
3015.625000	-66.893906
3031.250000	-66.328789
3046.875000	-65.784859
3062.500000	-64.953621
3078.125000	-63.679394
3093.750000	-61.819977
3109.375000	-59.526279
3125.000000	-57.617165
3140.625000	-57.262096
3156.250000	-58.229477
3171.875000	-60.282051
3187.500000	-62.286835
3203.125000	-64.101730
3218.750000	-65.493652
3234.375000	-66.285919
3250.000000	-66.597206
3265.625000	-66.670540
3281.250000	-66.534203
3296.875000	-66.056114
3312.500000	-65.125809
3328.125000	-64.009743
3343.750000	-62.443771
3359.375000	-60.256088
3375.000000	-57.779919
3390.625000	-56.565506
3406.250000	-57.124489
3421.875000	-59.008617
3437.500000	-61.381580
3453.125000	-63.327572
3468.750000	-64.703644
3484.375000	-65.658463
3500.000000	-66.184555
3515.625000	-66.407593
3531.250000	-66.317650
3546.875000	-65.817009
3562.500000	-65.229225
3578.125000	-64.312981
3593.750000	-62.775082
3609.375000	-60.995140
3625.000000	-58.766911
3640.625000	-57.055157
3656.250000	-56.780468
3671.875000	-57.978630
3687.500000	-60.008537
3703.125000	-62.011829
3718.750000	-63.698780
3734.375000	-64.675980
3750.000000	-65.544342
3765.625000	-65.916290
3781.250000	-66.030418
3796.875000	-65.900352
3812.500000	-65.629211
3828.125000	-65.036644
3843.750000	-63.565521
3859.375000	-62.332085
3875.000000	-60.604897
3890.625000	-58.297619
3906.250000	-57.142727
3921.875000	-57.819538
3937.500000	-59.652740
3953.125000	-61.649746
3968.750000	-63.358852
3984.375000	-65.009232
4000.000000	-66.299728
4015.625000	-66.806343
4031.250000	-67.160721
4046.875000	-67.308784
4062.500000	-67.129303
4078.125000	-67.013718
4093.750000	-66.399376
4109.375000	-65.119583
4125.000000	-63.562428
4140.625000	-61.750198
4156.250000	-60.024086
4171.875000	-59.001514
4187.500000	-59.738297
4203.125000	-61.903759
4218.750000	-64.391472
4234.375000	-66.488365
4250.000000	-67.673897
4265.625000	-68.789322
4281.250000	-69.562256
4296.875000	-70.191292
4312.500000	-70.392815
4328.125000	-70.164734
4343.750000	-69.791603
4359.375000	-69.132095
4375.000000	-67.762070
4390.625000	-66.182083
4406.250000	-63.909233
4421.875000	-62.057976
4437.500000	-61.831944
4453.125000	-63.655872
4468.750000	-66.318405
4484.375000	-68.659904
4500.000000	-70.384697
4515.625000	-71.744644
4531.250000	-72.612228
4546.875000	-73.083664
4562.500000	-73.409714
4578.125000	-73.689079
4593.750000	-73.442650
4609.375000	-72.713364
4625.000000	-71.823875
4640.625000	-70.307571
4656.250000	-68.222923
4671.875000	-66.132729
4687.500000	-64.863121
4703.125000	-65.465401
4718.750000	-67.812889
4734.375000	-70.281677
4750.000000	-72.308426
4765.625000	-73.844833
4781.250000	-75.129486
4796.875000	-75.842636
4812.500000	-76.334167
4828.125000	-76.492035
4843.750000	-76.113029
4859.375000	-75.819199
4875.000000	-75.089043
4890.625000	-73.661629
4906.250000	-71.881508
4921.875000	-69.615219
4937.500000	-68.023293
4953.125000	-68.028656
4968.750000	-69.639122
4984.375000	-71.729279
5000.000000	-73.959190
5015.625000	-75.771072
5031.250000	-77.270775
5046.875000	-78.200584
5062.500000	-78.637886
5078.125000	-78.799339
5093.750000	-78.898567
5109.375000	-78.659676
5125.000000	-78.149414
5140.625000	-77.038246
5156.250000	-75.452126
5171.875000	-73.619240
5187.500000	-71.698914
5203.125000	-70.673393
5218.750000	-71.197868
5234.375000	-73.278091
5250.000000	-75.615456
5265.625000	-77.608307
5281.250000	-79.011398
5296.875000	-80.042984
5312.500000	-80.509018
5328.125000	-80.821953
5343.750000	-80.728241
5359.375000	-80.728256
5375.000000	-80.331566
5390.625000	-79.603371
5406.250000	-78.625328
5421.875000	-76.990150
5437.500000	-74.902611
5453.125000	-73.769073
5468.750000	-73.773758
5484.375000	-75.016205
5500.000000	-76.815643
5515.625000	-78.609261
5531.250000	-80.213112
5546.875000	-81.369179
5562.500000	-82.154594
5578.125000	-82.544899
5593.750000	-82.608681
5609.375000	-82.645889
5625.000000	-82.535622
5640.625000	-82.043846
5656.250000	-81.175751
5671.875000	-80.015152
5687.500000	-78.468452
5703.125000	-76.978859
5718.750000	-76.390579
5734.375000	-76.590416
5750.000000	-77.859329
5765.625000	-79.458336
5781.250000	-80.716621
5796.875000	-81.958199
5812.500000	-82.994652
5828.125000	-83.576256
5843.750000	-83.985229
5859.375000	-84.191566
5875.000000	-84.372719
5890.625000	-83.851257
5906.250000	-83.327393
5921.875000	-82.458763
5937.500000	-81.431015
5953.125000	-80.463013
5968.750000	-79.388649
5984.375000	-78.398232
6000.000000	-78.538162
6015.625000	-79.297684
6031.250000	-80.465866
6046.875000	-81.854904
6062.500000	-82.939964
6078.125000	-83.722343
6093.750000	-84.561623
6109.375000	-85.220734
6125.000000	-85.363419
6140.625000	-85.266602
6156.250000	-85.126236
6171.875000	-84.801003
6187.500000	-83.944191
6203.125000	-82.902908
6218.750000	-81.727188
6234.375000	-80.440193
6250.000000	-79.447090
6265.625000	-79.287849
6281.250000	-80.222015
6296.875000	-81.671219
6312.500000	-83.549438
6328.125000	-85.079239
6343.750000	-85.964417
6359.375000	-86.652290
6375.000000	-86.991203
6390.625000	-87.394562
6406.250000	-87.430038
6421.875000	-86.994072
6437.500000	-86.500977
6453.125000	-85.730629
6468.750000	-84.775719
6484.375000	-83.425735
6500.000000	-81.951393
6515.625000	-81.406303
6531.250000	-81.987907
6546.875000	-83.292099
6562.500000	-84.962616
6578.125000	-86.761909
6593.750000	-87.972839
6609.375000	-88.728096
6625.000000	-89.261444
6640.625000	-89.829254
6656.250000	-90.039925
6671.875000	-90.269814
6687.500000	-89.855507
6703.125000	-89.759087
6718.750000	-89.007980
6734.375000	-87.793579
6750.000000	-86.656738
6765.625000	-85.479332
6781.250000	-85.047050
6796.875000	-86.221581
6812.500000	-87.781418
6828.125000	-89.352036
6843.750000	-90.721245
6859.375000	-91.589424
6875.000000	-92.184303
6890.625000	-92.618759
6906.250000	-92.845535
6921.875000	-93.002289
6937.500000	-92.946602
6953.125000	-92.846794
6968.750000	-92.631699
6984.375000	-92.114883
7000.000000	-91.700859
7015.625000	-91.231094
7031.250000	-90.507339
7046.875000	-90.547638
7062.500000	-91.542641
7078.125000	-92.801537
7093.750000	-93.517502
7109.375000	-94.004623
7125.000000	-94.352249
7140.625000	-94.617722
7156.250000	-94.739380
7171.875000	-94.754387
7187.500000	-94.816490
7203.125000	-94.667366
7218.750000	-94.659042
7234.375000	-94.593094
7250.000000	-94.696663
7265.625000	-94.275803
7281.250000	-94.056900
7296.875000	-94.396660
7312.500000	-94.479614
7328.125000	-94.604683
7343.750000	-94.879173
7359.375000	-95.072418
7375.000000	-95.153313
7390.625000	-95.185165
7406.250000	-95.156609
7421.875000	-95.149193
7437.500000	-95.058731
7453.125000	-95.030090
7468.750000	-95.125549
7484.375000	-95.430603
7500.000000	-95.703514
7515.625000	-95.531548
7531.250000	-96.037498
7546.875000	-96.458092
7562.500000	-96.458084
7578.125000	-97.047501
7593.750000	-97.887489
7609.375000	-98.596207
7625.000000	-99.615677
7640.625000	-100.905945
7656.250000	-102.235596
7671.875000	-103.872787
7687.500000	-105.459061
7703.125000	-107.352264
7718.750000	-109.637856
7734.375000	-112.053383
7750.000000	-114.716423
7765.625000	-117.954842
7781.250000	-121.259499
7796.875000	-124.656761
7812.500000	-128.718262
7828.125000	-133.581635
7843.750000	-138.684570
7859.375000	-143.850861
7875.000000	-149.706558
7890.625000	-156.424820
7906.250000	-163.384827
7921.875000	-170.805359
7937.500000	-176.910568
7953.125000	-180.044373
7968.750000	-181.136856
7984.375000	-181.615631
