Frequency (Hz)	Level (dB)
15.625000	-76.452431
31.250000	-73.984497
46.875000	-71.804001
62.500000	-69.898209
78.125000	-67.220673
93.750000	-66.790741
109.375000	-66.624542
125.000000	-66.209106
140.625000	-72.919144
156.250000	-74.683617
171.875000	-73.986099
187.500000	-72.444969
203.125000	-69.760818
218.750000	-65.218430
234.375000	-59.931347
250.000000	-59.770653
265.625000	-63.105225
281.250000	-66.822128
296.875000	-69.475159
312.500000	-71.215355
328.125000	-72.150742
343.750000	-72.724091
359.375000	-73.175095
375.000000	-73.101723
390.625000	-72.793442
406.250000	-72.291130
421.875000	-71.650169
437.500000	-70.516762
453.125000	-68.862427
468.750000	-66.995674
484.375000	-64.494972
500.000000	-62.119167
515.625000	-61.752998
531.250000	-63.591404
546.875000	-66.380074
562.500000	-68.067162
578.125000	-69.066956
593.750000	-69.902031
609.375000	-70.355957
625.000000	-70.532860
640.625000	-70.252724
656.250000	-70.002220
671.875000	-69.219528
687.500000	-67.813232
703.125000	-66.104713
718.750000	-64.171494
734.375000	-62.277088
750.000000	-61.251297
765.625000	-61.402893
781.250000	-61.890556
796.875000	-63.137482
812.500000	-64.776436
828.125000	-66.003555
843.750000	-67.048233
859.375000	-67.769440
875.000000	-67.934319
890.625000	-68.196426
906.250000	-67.828903
921.875000	-67.345474
937.500000	-66.526230
953.125000	-65.521729
968.750000	-64.945572
984.375000	-63.935658
1000.000000	-63.179482
1015.625000	-62.897575
1031.250000	-63.195290
1046.875000	-63.667030
1062.500000	-63.824852
1078.125000	-64.159828
1093.750000	-64.367882
1109.375000	-64.674385
1125.000000	-64.711723
1140.625000	-64.787025
1156.250000	-64.783745
1171.875000	-64.672562
1187.500000	-64.431969
1203.125000	-64.251572
1218.750000	-63.782524
1234.375000	-62.726906
1250.000000	-61.175919
1265.625000	-59.282307
1281.250000	-56.707253
1296.875000	-53.911594
1312.500000	-52.075890
1328.125000	-52.563786
1343.750000	-54.710655
1359.375000	-57.165905
1375.000000	-58.755238
1390.625000	-59.713623
1406.250000	-60.507320
1421.875000	-60.638275
1437.500000	-60.412357
1453.125000	-60.049603
1468.750000	-59.372250
1484.375000	-58.316048
1500.000000	-56.640789
1515.625000	-54.668716
1531.250000	-52.410439
1546.875000	-50.597507
1562.500000	-50.558357
1578.125000	-52.216007
1593.750000	-54.086975
1609.375000	-56.090176
1625.000000	-57.053978
1640.625000	-57.951748
1656.250000	-58.654205
1671.875000	-58.908714
1687.500000	-58.781254
1703.125000	-58.374500
1718.750000	-57.733662
1734.375000	-56.585506
1750.000000	-55.747452
1765.625000	-54.469784
1781.250000	-52.670826
1796.875000	-51.683037
1812.500000	-51.700272
1828.125000	-52.414658
1843.750000	-53.484779
1859.375000	-54.851898
1875.000000	-55.737698
1890.625000	-56.431549
1906.250000	-57.112324
1921.875000	-57.626354
1937.500000	-57.792213
1953.125000	-57.865356
1968.750000	-57.898987
1984.375000	-57.280045
2000.000000	-56.585258
2015.625000	-56.009666
2031.250000	-55.060238
2046.875000	-54.170750
2062.500000	-53.696339
2078.125000	-53.453445
2093.750000	-53.348175
2109.375000	-53.535625
2125.000000	-54.083904
2140.625000	-54.995468
2156.250000	-55.793411
2171.875000	-56.551395
2187.500000	-57.028324
2203.125000	-57.286697
2218.750000	-57.329220
2234.375000	-57.302963
2250.000000	-56.978359
2265.625000	-56.542244
2281.250000	-56.186172
2296.875000	-55.573093
2312.500000	-54.625717
2328.125000	-53.371410
2343.750000	-52.488705
2359.375000	-52.016155
2375.000000	-52.208763
2390.625000	-52.956432
2406.250000	-53.731030
2421.875000	-54.605194
2437.500000	-55.603477
2453.125000	-56.601341
2468.750000	-57.170116
2484.375000	-57.476883
2500.000000	-57.522736
2515.625000	-57.303001
2531.250000	-56.584927
2546.875000	-56.306709
2562.500000	-55.255348
2578.125000	-53.881474
2593.750000	-52.309849
2609.375000	-50.856647
2625.000000	-50.223103
2640.625000	-50.511341
2656.250000	-51.666817
2671.875000	-53.176762
2687.500000	-54.732311
2703.125000	-55.940262
2718.750000	-56.833122
2734.375000	-57.293755
2750.000000	-57.439423
2765.625000	-57.376690
2781.250000	-57.103882
2796.875000	-56.681328
2812.500000	-55.618221
2828.125000	-54.072929
2843.750000	-52.362514
2859.375000	-50.143715
2875.000000	-48.559772
2890.625000	-48.597004
2906.250000	-49.883537
2921.875000	-51.575058
2937.500000	-53.216156
2953.125000	-54.725613
2968.750000	-55.647858
2984.375000	-56.641068
3000.000000	-56.830128
3015.625000	-56.938328
3031.250000	-56.821693
3046.875000	-56.450962
3062.500000	-55.660389
3078.125000	-54.221855
3093.750000	-52.364334
3109.375000	-50.267944
3125.000000	-47.735218
3140.625000	-46.569160
3156.250000	-47.622089
3171.875000	-50.064632
3187.500000	-52.130646
3203.125000	-53.804882
3218.750000	-55.016445
3234.375000	-55.871330
3250.000000	-56.223793
3265.625000	-56.288597
3281.250000	-56.064346
3296.875000	-55.802910
3312.500000	-55.196030
3328.125000	-54.020710
3343.750000	-52.120888
3359.375000	-50.273819
3375.000000	-47.857693
3390.625000	-45.968109
3406.250000	-46.076721
3421.875000	-47.906376
3437.500000	-50.280632
3453.125000	-51.986530
3468.750000	-53.545986
3484.375000	-54.514687
3500.000000	-55.071323
3515.625000	-55.392094
3531.250000	-55.332085
3546.875000	-55.185791
3562.500000	-54.515163
3578.125000	-53.649952
3593.750000	-52.091274
3609.375000	-50.067970
3625.000000	-48.265606
3640.625000	-46.138195
3656.250000	-45.521957
3671.875000	-46.361492
3687.500000	-48.451508
3703.125000	-50.565430
3718.750000	-51.968315
3734.375000	-53.008018
3750.000000	-53.772350
3765.625000	-54.566906
3781.250000	-54.629475
3796.875000	-54.566372
3812.500000	-53.974045
3828.125000	-53.571178
3843.750000	-52.738525
3859.375000	-51.376549
3875.000000	-49.683769
3890.625000	-47.340515
3906.250000	-45.738251
3921.875000	-45.665592
3937.500000	-47.142323
3953.125000	-49.357700
3968.750000	-51.242020
3984.375000	-52.789040
4000.000000	-53.993900
4015.625000	-54.946232
4031.250000	-55.286663
4046.875000	-55.577534
4062.500000	-55.541218
4078.125000	-55.370728
4093.750000	-54.567795
4109.375000	-53.638371
4125.000000	-52.161247
4140.625000	-50.311840
4156.250000	-48.395866
4171.875000	-47.221531
4187.500000	-47.534870
4203.125000	-49.226013
4218.750000	-51.712700
4234.375000	-53.756214
4250.000000	-55.263805
4265.625000	-56.462051
4281.250000	-57.392086
4296.875000	-58.114830
4312.500000	-58.208710
4328.125000	-57.843822
4343.750000	-57.648735
4359.375000	-56.741657
4375.000000	-55.608006
4390.625000	-54.003548
4406.250000	-51.877613
4421.875000	-50.005547
4437.500000	-49.214443
4453.125000	-50.528137
4468.750000	-53.114326
4484.375000	-55.473885
4500.000000	-57.294300
4515.625000	-58.535698
4531.250000	-59.943310
4546.875000	-60.694481
4562.500000	-61.001453
4578.125000	-60.937141
4593.750000	-60.639771
4609.375000	-60.136974
4625.000000	-59.198586
4640.625000	-57.915569
4656.250000	-56.152271
4671.875000	-53.922665
4687.500000	-52.087406
4703.125000	-52.315788
4718.750000	-53.939587
4734.375000	-56.426548
4750.000000	-58.744579
4765.625000	-60.421276
4781.250000	-61.754326
4796.875000	-62.650940
4812.500000	-63.136520
4828.125000	-63.588062
4843.750000	-63.144135
4859.375000	-63.003418
4875.000000	-62.421143
4890.625000	-61.183445
4906.250000	-59.502434
4921.875000	-57.356041
4937.500000	-55.319016
4953.125000	-54.622475
4968.750000	-55.605610
4984.375000	-57.985928
5000.000000	-60.448963
5015.625000	-62.204723
5031.250000	-63.571049
5046.875000	-64.402901
5062.500000	-65.135307
5078.125000	-65.682671
5093.750000	-65.719780
5109.375000	-65.368004
5125.000000	-64.815681
5140.625000	-64.042160
5156.250000	-62.881268
5171.875000	-60.890583
5187.500000	-58.700066
5203.125000	-57.665276
5218.750000	-57.718987
5234.375000	-59.175713
5250.000000	-61.616241
5265.625000	-63.501518
5281.250000	-65.070633
5296.875000	-65.955673
5312.500000	-66.866203
5328.125000	-67.543976
5343.750000	-67.714622
5359.375000	-67.413620
5375.000000	-67.089668
5390.625000	-66.603416
5406.250000	-65.672409
5421.875000	-64.071762
5437.500000	-62.090736
5453.125000	-60.604939
5468.750000	-59.829838
5484.375000	-60.404583
5500.000000	-62.425735
5515.625000	-64.149673
5531.250000	-65.902092
5546.875000	-67.520393
5562.500000	-68.426720
5578.125000	-68.898033
5593.750000	-69.262489
5609.375000	-69.365913
5625.000000	-69.187881
5640.625000	-68.414177
5656.250000	-67.728600
5671.875000	-66.867264
5687.500000	-65.491608
5703.125000	-64.164375
5718.750000	-63.177673
5734.375000	-63.005547
5750.000000	-63.571785
5765.625000	-64.966454
5781.250000	-66.353317
5796.875000	-67.790138
5812.500000	-68.893257
5828.125000	-69.860634
5843.750000	-70.126038
5859.375000	-70.432106
5875.000000	-70.546738
5890.625000	-70.247360
5906.250000	-69.858673
5921.875000	-69.226929
5937.500000	-68.345665
5953.125000	-67.095871
5968.750000	-65.770424
5984.375000	-64.826508
6000.000000	-64.234779
6015.625000	-64.564117
6031.250000	-65.629013
6046.875000	-66.974670
6062.500000	-68.440941
6078.125000	-69.371498
6093.750000	-70.415352
6109.375000	-70.936829
6125.000000	-71.464386
6140.625000	-71.629745
6156.250000	-71.416451
6171.875000	-70.938889
6187.500000	-70.240273
6203.125000	-69.486671
6218.750000	-68.178291
6234.375000	-66.977066
6250.000000	-65.675568
6265.625000	-65.090530
6281.250000	-65.525902
6296.875000	-66.886795
6312.500000	-68.819160
6328.125000	-70.138412
6343.750000	-71.045479
6359.375000	-72.203674
6375.000000	-73.024513
6390.625000	-73.510948
6406.250000	-73.487709
6421.875000	-73.376778
6437.500000	-73.103043
6453.125000	-72.516953
6468.750000	-71.652473
6484.375000	-70.156853
6500.000000	-68.651497
6515.625000	-67.308487
6531.250000	-66.971329
6546.875000	-67.977013
6562.500000	-70.236557
6578.125000	-72.313828
6593.750000	-73.981964
6609.375000	-75.215286
6625.000000	-76.172310
6640.625000	-76.457451
6656.250000	-76.852798
6671.875000	-77.041122
6687.500000	-76.994110
6703.125000	-76.793144
6718.750000	-76.083855
6734.375000	-74.672218
6750.000000	-73.483299
6765.625000	-72.201317
6781.250000	-70.982300
6796.875000	-71.338036
6812.500000	-73.106560
6828.125000	-75.267662
6843.750000	-77.286690
6859.375000	-79.039650
6875.000000	-80.456841
6890.625000	-81.442238
6906.250000	-82.136726
6921.875000	-82.773636
6937.500000	-82.971458
6953.125000	-82.900574
6968.750000	-82.528816
6984.375000	-81.872726
7000.000000	-81.125000
7015.625000	-79.530373
7031.250000	-78.066559
7046.875000	-77.619919
7062.500000	-78.575226
7078.125000	-80.531479
7093.750000	-82.627068
7109.375000	-84.837700
7125.000000	-86.486084
7140.625000	-87.790504
7156.250000	-88.821518
7171.875000	-89.352638
7187.500000	-89.653801
7203.125000	-90.092545
7218.750000	-90.248230
7234.375000	-89.948685
7250.000000	-89.524635
7265.625000	-88.712540
7281.250000	-87.601898
7296.875000	-86.994186
7312.500000	-86.794868
7328.125000	-87.931335
7343.750000	-90.166756
7359.375000	-91.740349
7375.000000	-92.971443
7390.625000	-93.960136
7406.250000	-94.406631
7421.875000	-94.555237
7437.500000	-94.453064
7453.125000	-94.517494
7468.750000	-94.673843
7484.375000	-94.827309
7500.000000	-95.052574
7515.625000	-95.217751
7531.250000	-95.437088
7546.875000	-95.467270
7562.500000	-95.783707
7578.125000	-96.565903
7593.750000	-97.561981
7609.375000	-98.703262
7625.000000	-99.411140
7640.625000	-100.729980
7656.250000	-102.019508
7671.875000	-103.652870
7687.500000	-105.508926
7703.125000	-107.581841
7718.750000	-109.765915
7734.375000	-112.185013
7750.000000	-115.032120
7765.625000	-118.087578
7781.250000	-121.489273
7796.875000	-125.202248
7812.500000	-129.317352
7828.125000	-133.522003
7843.750000	-138.531738
7859.375000	-144.052673
7875.000000	-149.960693
7890.625000	-156.022156
7906.250000	-163.087357
7921.875000	-170.074707
7937.500000	-175.221405
7953.125000	-177.208786
7968.750000	-177.648788
7984.375000	-177.919113
