Frequency (Hz)	Level (dB)
15.625000	-72.478691
31.250000	-66.472527
46.875000	-62.659683
62.500000	-60.335758
78.125000	-58.462109
93.750000	-57.448013
109.375000	-56.690411
125.000000	-55.603268
140.625000	-55.123619
156.250000	-53.315510
171.875000	-50.488232
187.500000	-45.846851
203.125000	-40.627144
218.750000	-39.473892
234.375000	-43.008888
250.000000	-47.327904
265.625000	-50.155758
281.250000	-51.676697
296.875000	-52.544899
312.500000	-52.991528
328.125000	-52.799942
343.750000	-52.007393
359.375000	-51.061584
375.000000	-49.627312
390.625000	-47.498451
406.250000	-45.297756
421.875000	-43.196224
437.500000	-42.061584
453.125000	-42.644089
468.750000	-44.556820
484.375000	-46.578568
500.000000	-48.455013
515.625000	-49.539600
531.250000	-50.260311
546.875000	-50.235630
562.500000	-49.883335
578.125000	-49.083969
593.750000	-47.841377
609.375000	-45.523788
625.000000	-42.250614
640.625000	-38.808697
656.250000	-37.928509
671.875000	-40.349037
687.500000	-43.500858
703.125000	-45.326698
718.750000	-46.069935
734.375000	-46.557999
750.000000	-46.951187
765.625000	-47.267807
781.250000	-47.181339
796.875000	-46.276737
812.500000	-44.832012
828.125000	-43.172695
843.750000	-41.726173
859.375000	-41.379284
875.000000	-41.217800
890.625000	-40.952206
906.250000	-42.039444
921.875000	-43.835316
937.500000	-45.359592
953.125000	-46.016380
968.750000	-46.066891
984.375000	-45.686028
1000.000000	-45.230244
1015.625000	-44.749100
1031.250000	-44.329681
1046.875000	-43.806442
1062.500000	-43.057632
1078.125000	-42.113937
1093.750000	-40.739731
1109.375000	-38.577557
1125.000000	-35.297314
1140.625000	-33.072403
1156.250000	-33.529774
1171.875000	-35.865486
1187.500000	-38.349644
1203.125000	-39.745075
1218.750000	-40.476944
1234.375000	-40.713913
1250.000000	-40.506424
1265.625000	-39.383862
1281.250000	-37.764309
1296.875000	-35.508450
1312.500000	-32.386398
1328.125000	-29.200708
1343.750000	-27.936514
1359.375000	-30.032137
1375.000000	-33.260117
1390.625000	-35.561462
1406.250000	-37.104443
1421.875000	-38.091900
1437.500000	-38.328365
1453.125000	-37.973068
1468.750000	-37.506390
1484.375000	-36.607571
1500.000000	-35.316727
1515.625000	-32.964314
1531.250000	-30.584478
1546.875000	-28.887743
1562.500000	-28.674332
1578.125000	-29.905243
1593.750000	-32.287926
1609.375000	-34.004383
1625.000000	-35.204590
1640.625000	-35.884037
1656.250000	-36.287811
1671.875000	-36.250401
1687.500000	-35.729866
1703.125000	-35.106865
1718.750000	-34.153492
1734.375000	-33.133450
1750.000000	-32.174053
1765.625000	-31.592752
1781.250000	-31.356100
1796.875000	-31.601065
1812.500000	-32.717297
1828.125000	-33.580620
1843.750000	-34.365627
1859.375000	-34.945610
1875.000000	-35.440914
1890.625000	-35.870670
1906.250000	-35.547707
1921.875000	-35.615536
1937.500000	-35.326561
1953.125000	-34.708698
1968.750000	-33.888641
1984.375000	-32.997540
2000.000000	-32.117889
2015.625000	-31.533369
2031.250000	-31.288254
2046.875000	-31.293369
2062.500000	-31.616711
2078.125000	-32.376282
2093.750000	-33.180050
2109.375000	-33.762817
2125.000000	-34.425823
2140.625000	-34.720417
2156.250000	-34.894836
2171.875000	-34.893078
2187.500000	-34.439114
2203.125000	-33.451942
2218.750000	-32.415157
2234.375000	-30.940887
2250.000000	-29.481789
2265.625000	-28.740562
2281.250000	-28.924660
2296.875000	-30.088446
2312.500000	-31.640427
2328.125000	-33.078056
2343.750000	-34.095680
2359.375000	-34.444263
2375.000000	-34.817020
2390.625000	-34.924591
2406.250000	-34.435478
2421.875000	-33.736904
2437.500000	-32.158215
2453.125000	-30.109928
2468.750000	-28.127659
2484.375000	-26.667635
2500.000000	-26.853239
2515.625000	-28.527901
2531.250000	-30.566456
2546.875000	-32.536961
2562.500000	-33.830009
2578.125000	-34.564564
2593.750000	-34.875889
2609.375000	-34.816593
2625.000000	-34.195843
2640.625000	-33.221420
2656.250000	-31.980675
2671.875000	-29.884548
2687.500000	-26.940060
2703.125000	-24.777790
2718.750000	-25.162302
2734.375000	-27.371807
2750.000000	-30.215477
2765.625000	-32.234425
2781.250000	-33.560284
2796.875000	-34.584114
2812.500000	-34.906609
2828.125000	-34.684071
2843.750000	-34.163151
2859.375000	-33.270359
2875.000000	-31.941032
2890.625000	-29.420912
2906.250000	-26.256636
2921.875000	-23.632824
2937.500000	-23.512175
2953.125000	-25.969929
2968.750000	-29.233515
2984.375000	-31.399944
3000.000000	-32.768433
3015.625000	-33.865559
3031.250000	-34.327682
3046.875000	-34.301949
3062.500000	-33.812202
3078.125000	-32.949738
3093.750000	-31.497570
3109.375000	-29.174202
3125.000000	-25.979553
3140.625000	-22.700645
3156.250000	-22.236355
3171.875000	-24.571547
3187.500000	-27.637043
3203.125000	-30.212736
3218.750000	-31.575439
3234.375000	-32.499969
3250.000000	-33.068283
3265.625000	-33.059597
3281.250000	-32.659252
3296.875000	-32.014973
3312.500000	-30.491379
3328.125000	-28.431299
3343.750000	-25.569925
3359.375000	-22.867971
3375.000000	-21.643356
3390.625000	-23.036520
3406.250000	-26.030750
3421.875000	-28.550882
3437.500000	-30.216419
3453.125000	-30.975492
3468.750000	-31.682186
3484.375000	-31.996040
3500.000000	-31.798229
3515.625000	-30.833981
3531.250000	-29.457460
3546.875000	-27.876404
3562.500000	-25.281967
3578.125000	-22.380663
3593.750000	-21.186123
3609.375000	-22.187922
3625.000000	-24.682745
3640.625000	-27.069971
3656.250000	-28.941122
3671.875000	-30.166615
3687.500000	-30.899302
3703.125000	-31.206734
3718.750000	-31.207590
3734.375000	-30.978004
3750.000000	-30.187733
3765.625000	-28.586853
3781.250000	-26.472645
3796.875000	-23.639671
3812.500000	-21.444931
3828.125000	-21.545067
3843.750000	-23.988462
3859.375000	-27.025496
3875.000000	-29.130789
3890.625000	-30.963198
3906.250000	-31.998436
3921.875000	-32.513630
3937.500000	-32.911118
3953.125000	-32.704586
3968.750000	-32.029266
3984.375000	-30.886806
4000.000000	-29.258417
4015.625000	-26.823101
4031.250000	-24.038254
4046.875000	-22.992748
4062.500000	-24.806255
4078.125000	-28.146269
4093.750000	-30.976910
4109.375000	-32.750370
4125.000000	-34.232838
4140.625000	-35.148758
4156.250000	-35.502457
4171.875000	-35.634800
4187.500000	-35.203026
4203.125000	-34.357334
4218.750000	-32.805935
4234.375000	-30.241529
4250.000000	-27.187086
4265.625000	-25.467850
4281.250000	-26.762650
4296.875000	-29.864788
4312.500000	-32.925976
4328.125000	-35.158241
4343.750000	-36.721100
4359.375000	-37.775070
4375.000000	-38.243202
4390.625000	-38.166531
4406.250000	-37.838474
4421.875000	-37.088741
4437.500000	-35.650116
4453.125000	-33.723213
4468.750000	-30.777514
4484.375000	-28.755398
4500.000000	-29.183744
4515.625000	-32.201302
4531.250000	-35.046028
4546.875000	-37.186256
4562.500000	-38.900330
4578.125000	-40.066357
4593.750000	-40.510651
4609.375000	-40.580830
4625.000000	-40.280933
4640.625000	-39.703472
4656.250000	-38.301815
4671.875000	-36.111835
4687.500000	-33.727715
4703.125000	-31.582502
4718.750000	-31.615232
4734.375000	-34.163876
4750.000000	-37.154789
4765.625000	-39.460869
4781.250000	-40.854397
4796.875000	-41.918568
4812.500000	-42.683907
4828.125000	-43.149521
4843.750000	-42.798431
4859.375000	-42.028168
4875.000000	-40.788155
4890.625000	-39.085865
4906.250000	-36.978130
4921.875000	-35.217770
4937.500000	-35.030338
4953.125000	-36.774055
4968.750000	-39.253906
4984.375000	-41.299114
5000.000000	-42.802711
5015.625000	-43.897938
5031.250000	-44.392139
5046.875000	-44.722240
5062.500000	-44.684643
5078.125000	-44.268127
5093.750000	-43.369160
5109.375000	-41.985313
5125.000000	-40.233860
5140.625000	-38.445110
5156.250000	-37.786839
5171.875000	-38.316742
5187.500000	-39.822243
5203.125000	-41.721920
5218.750000	-43.278942
5234.375000	-44.489403
5250.000000	-45.277241
5265.625000	-45.721260
5281.250000	-45.992241
5296.875000	-45.709934
5312.500000	-45.018661
5328.125000	-44.079556
5343.750000	-42.828659
5359.375000	-41.706112
5375.000000	-40.346142
5390.625000	-39.900337
5406.250000	-40.324284
5421.875000	-41.568890
5437.500000	-43.037556
5453.125000	-44.662106
5468.750000	-45.526356
5484.375000	-46.007446
5500.000000	-46.333485
5515.625000	-46.172882
5531.250000	-46.065498
5546.875000	-45.660831
5562.500000	-44.576023
5578.125000	-43.029457
5593.750000	-41.110031
5609.375000	-39.655712
5625.000000	-39.414398
5640.625000	-40.426472
5656.250000	-42.066395
5671.875000	-43.881199
5687.500000	-45.178066
5703.125000	-46.255955
5718.750000	-46.786476
5734.375000	-46.919769
5750.000000	-46.792297
5765.625000	-46.209064
5781.250000	-45.262562
5796.875000	-43.906006
5812.500000	-42.234489
5828.125000	-40.117558
5843.750000	-38.901897
5859.375000	-39.488125
5875.000000	-41.455196
5890.625000	-43.571674
5906.250000	-45.458290
5921.875000	-46.758251
5937.500000	-47.481949
5953.125000	-47.879513
5968.750000	-47.820618
5984.375000	-47.192020
6000.000000	-46.248737
6015.625000	-45.114937
6031.250000	-43.385185
6046.875000	-41.010406
6062.500000	-39.428963
6078.125000	-39.655830
6093.750000	-41.321472
6109.375000	-43.722099
6125.000000	-45.800274
6140.625000	-47.021557
6156.250000	-47.913898
6171.875000	-48.468391
6187.500000	-48.587723
6203.125000	-48.185703
6218.750000	-47.649300
6234.375000	-46.564171
6250.000000	-44.965126
6265.625000	-42.648533
6281.250000	-40.555553
6296.875000	-40.117554
6312.500000	-41.793076
6328.125000	-44.347309
6343.750000	-46.500233
6359.375000	-48.061821
6375.000000	-49.164833
6390.625000	-49.842964
6406.250000	-50.384987
6421.875000	-50.269249
6437.500000	-49.903343
6453.125000	-49.031986
6468.750000	-47.250668
6484.375000	-45.142208
6500.000000	-42.734100
6515.625000	-41.655815
6531.250000	-42.746769
6546.875000	-45.186302
6562.500000	-47.822132
6578.125000	-49.727520
6593.750000	-51.056175
6609.375000	-52.308838
6625.000000	-52.741985
6640.625000	-52.678310
6656.250000	-52.583931
6671.875000	-51.920357
6687.500000	-50.687752
6703.125000	-48.920364
6718.750000	-46.659595
6734.375000	-45.164146
6750.000000	-45.681843
6765.625000	-47.839775
6781.250000	-50.670399
6796.875000	-52.927761
6812.500000	-54.550808
6828.125000	-55.806587
6843.750000	-56.661705
6859.375000	-57.085583
6875.000000	-56.937405
6890.625000	-56.303242
6906.250000	-55.131676
6921.875000	-53.636635
6937.500000	-51.619026
6953.125000	-49.694565
6968.750000	-49.561474
6984.375000	-51.753342
7000.000000	-54.895782
7015.625000	-57.562943
7031.250000	-59.443768
7046.875000	-60.599060
7062.500000	-61.576530
7078.125000	-62.291374
7093.750000	-62.088173
7109.375000	-62.066944
7125.000000	-61.462578
7140.625000	-60.170933
7156.250000	-58.512959
7171.875000	-56.277977
7187.500000	-55.504406
7203.125000	-57.275944
7218.750000	-60.451530
7234.375000	-63.451702
7250.000000	-65.688591
7265.625000	-66.794662
7281.250000	-68.084778
7296.875000	-68.936584
7312.500000	-69.187752
7328.125000	-69.436668
7343.750000	-69.044922
7359.375000	-67.830002
7375.000000	-66.331161
7390.625000	-64.217903
7406.250000	-63.021420
7421.875000	-64.197144
7437.500000	-66.725090
7453.125000	-69.399841
7468.750000	-71.429314
7484.375000	-73.060905
7500.000000	-74.150314
7515.625000	-74.755699
7531.250000	-74.976128
7546.875000	-75.092903
7562.500000	-74.819244
7578.125000	-73.878387
7593.750000	-72.605743
7609.375000	-71.113594
7625.000000	-70.290817
7640.625000	-71.182594
7656.250000	-74.136948
7671.875000	-77.979134
7687.500000	-81.731079
7703.125000	-84.823112
7718.750000	-88.141068
7734.375000	-91.124451
7750.000000	-94.227600
7765.625000	-97.251549
7781.250000	-100.117142
7796.875000	-102.921158
7812.500000	-105.411781
7828.125000	-107.916672
7843.750000	-110.747147
7859.375000	-114.964554
7875.000000	-121.273476
7890.625000	-129.445938
7906.250000	-138.677689
7921.875000	-146.581238
7937.500000	-150.956787
7953.125000	-152.356415
7968.750000	-152.883179
7984.375000	-153.179642
