Frequency (Hz)	Level (dB)
15.625000	-65.813393
31.250000	-60.416218
46.875000	-58.459286
62.500000	-58.063301
78.125000	-57.849632
93.750000	-58.214493
109.375000	-57.803410
125.000000	-57.485531
140.625000	-58.833477
156.250000	-58.138340
171.875000	-56.380928
187.500000	-53.059139
203.125000	-48.682121
218.750000	-47.142750
234.375000	-50.478451
250.000000	-55.583561
265.625000	-59.281429
281.250000	-61.371956
296.875000	-62.926025
312.500000	-63.853348
328.125000	-64.055946
343.750000	-63.753376
359.375000	-62.995472
375.000000	-61.914875
390.625000	-60.629139
406.250000	-58.584225
421.875000	-56.893303
437.500000	-55.706654
453.125000	-56.357235
468.750000	-58.442795
484.375000	-60.717945
500.000000	-62.734402
515.625000	-64.166832
531.250000	-65.195595
546.875000	-65.605804
562.500000	-65.677750
578.125000	-65.339943
593.750000	-64.253052
609.375000	-62.304268
625.000000	-59.634556
640.625000	-56.143715
656.250000	-54.693321
671.875000	-56.709785
687.500000	-60.117744
703.125000	-62.479393
718.750000	-63.702213
734.375000	-64.658836
750.000000	-65.373314
765.625000	-65.826775
781.250000	-65.673859
796.875000	-65.339012
812.500000	-64.311249
828.125000	-62.758102
843.750000	-61.428127
859.375000	-60.945015
875.000000	-60.824944
890.625000	-60.967400
906.250000	-61.636765
921.875000	-63.337173
937.500000	-65.096794
953.125000	-66.221191
968.750000	-66.460625
984.375000	-66.034302
1000.000000	-65.821281
1015.625000	-65.737976
1031.250000	-65.423691
1046.875000	-65.237572
1062.500000	-64.682762
1078.125000	-63.834694
1093.750000	-62.717876
1109.375000	-60.854992
1125.000000	-57.895435
1140.625000	-54.967491
1156.250000	-54.749870
1171.875000	-57.073818
1187.500000	-59.814053
1203.125000	-61.643711
1218.750000	-62.741459
1234.375000	-62.956970
1250.000000	-62.838238
1265.625000	-62.322929
1281.250000	-61.473610
1296.875000	-59.826366
1312.500000	-56.974251
1328.125000	-53.640671
1343.750000	-51.203148
1359.375000	-52.091751
1375.000000	-55.245903
1390.625000	-57.992367
1406.250000	-59.999214
1421.875000	-61.284149
1437.500000	-61.950096
1453.125000	-62.208546
1468.750000	-61.619961
1484.375000	-61.058083
1500.000000	-60.086811
1515.625000	-58.258060
1531.250000	-56.031193
1546.875000	-54.031902
1562.500000	-52.995125
1578.125000	-53.699486
1593.750000	-55.934174
1609.375000	-58.007530
1625.000000	-59.529251
1640.625000	-60.719368
1656.250000	-61.130989
1671.875000	-61.439369
1687.500000	-61.240181
1703.125000	-60.725117
1718.750000	-59.896374
1734.375000	-59.034374
1750.000000	-58.088879
1765.625000	-57.173206
1781.250000	-56.816162
1796.875000	-56.962551
1812.500000	-57.844864
1828.125000	-58.927979
1843.750000	-59.707417
1859.375000	-60.541866
1875.000000	-61.197147
1890.625000	-61.474686
1906.250000	-61.645836
1921.875000	-61.908318
1937.500000	-61.444771
1953.125000	-61.210167
1968.750000	-60.870728
1984.375000	-60.206947
2000.000000	-59.338875
2015.625000	-58.824677
2031.250000	-57.960514
2046.875000	-57.508415
2062.500000	-58.011589
2078.125000	-58.749683
2093.750000	-59.578358
2109.375000	-60.508289
2125.000000	-61.211269
2140.625000	-61.828403
2156.250000	-62.089058
2171.875000	-62.095997
2187.500000	-61.778183
2203.125000	-61.393810
2218.750000	-60.681850
2234.375000	-59.460979
2250.000000	-58.154144
2265.625000	-56.731934
2281.250000	-56.052460
2296.875000	-56.702972
2312.500000	-58.108910
2328.125000	-59.609138
2343.750000	-60.900692
2359.375000	-61.943642
2375.000000	-62.587704
2390.625000	-62.920475
2406.250000	-62.823090
2421.875000	-62.510086
2437.500000	-61.400257
2453.125000	-59.770035
2468.750000	-57.909485
2484.375000	-55.705139
2500.000000	-54.628033
2515.625000	-55.200146
2531.250000	-57.273350
2546.875000	-59.497204
2562.500000	-61.256889
2578.125000	-62.616932
2593.750000	-63.197144
2609.375000	-63.594639
2625.000000	-63.701363
2640.625000	-63.217751
2656.250000	-62.307842
2671.875000	-60.695732
2687.500000	-58.357063
2703.125000	-55.399956
2718.750000	-53.519413
2734.375000	-54.366695
2750.000000	-57.121460
2765.625000	-59.526539
2781.250000	-61.417599
2796.875000	-63.004265
2812.500000	-63.577393
2828.125000	-63.965248
2843.750000	-64.308136
2859.375000	-63.659760
2875.000000	-62.719406
2890.625000	-60.931339
2906.250000	-58.622654
2921.875000	-55.565559
2937.500000	-53.126434
2953.125000	-53.262383
2968.750000	-55.994148
2984.375000	-59.205612
3000.000000	-61.395702
3015.625000	-62.633739
3031.250000	-63.552544
3046.875000	-63.863647
3062.500000	-63.899414
3078.125000	-63.564636
3093.750000	-62.658070
3109.375000	-61.278690
3125.000000	-59.205643
3140.625000	-56.215969
3156.250000	-53.002991
3171.875000	-52.255001
3187.500000	-54.414558
3203.125000	-57.699001
3218.750000	-60.401348
3234.375000	-62.095406
3250.000000	-63.006618
3265.625000	-63.309830
3281.250000	-63.398907
3296.875000	-63.034241
3312.500000	-62.263309
3328.125000	-61.238674
3343.750000	-59.245338
3359.375000	-56.401211
3375.000000	-53.254349
3390.625000	-51.945774
3406.250000	-53.376495
3421.875000	-56.423111
3437.500000	-58.950005
3453.125000	-60.990685
3468.750000	-62.015144
3484.375000	-62.607693
3500.000000	-62.855522
3515.625000	-62.486900
3531.250000	-61.923866
3546.875000	-60.743011
3562.500000	-59.070290
3578.125000	-56.961113
3593.750000	-54.157784
3609.375000	-52.550449
3625.000000	-53.014675
3640.625000	-55.366894
3656.250000	-57.952686
3671.875000	-59.774857
3687.500000	-61.063564
3703.125000	-61.966984
3718.750000	-62.597015
3734.375000	-62.611832
3750.000000	-62.419426
3765.625000	-61.468208
3781.250000	-60.306332
3796.875000	-58.585270
3812.500000	-56.313873
3828.125000	-53.934509
3843.750000	-53.051323
3859.375000	-54.779102
3875.000000	-58.036869
3890.625000	-60.391834
3906.250000	-62.065575
3921.875000	-63.619263
3937.500000	-64.545761
3953.125000	-64.860390
3968.750000	-64.584381
3984.375000	-64.430885
4000.000000	-63.590168
4015.625000	-61.946499
4031.250000	-59.577435
4046.875000	-56.952614
4062.500000	-55.146145
4078.125000	-56.202408
4093.750000	-59.306953
4109.375000	-62.173759
4125.000000	-64.227913
4140.625000	-65.849510
4156.250000	-67.121292
4171.875000	-67.614410
4187.500000	-67.673088
4203.125000	-67.471413
4218.750000	-67.066940
4234.375000	-65.773331
4250.000000	-63.531437
4265.625000	-60.728218
4281.250000	-58.278328
4296.875000	-58.358921
4312.500000	-61.180393
4328.125000	-64.449989
4343.750000	-66.973114
4359.375000	-68.771599
4375.000000	-69.957603
4390.625000	-70.780563
4406.250000	-70.886040
4421.875000	-70.653870
4437.500000	-70.022881
4453.125000	-69.131180
4468.750000	-67.390503
4484.375000	-64.855370
4500.000000	-62.329517
4515.625000	-61.673355
4531.250000	-63.484249
4546.875000	-66.530663
4562.500000	-69.125824
4578.125000	-71.022141
4593.750000	-72.520393
4609.375000	-73.354088
4625.000000	-73.745094
4640.625000	-73.375046
4656.250000	-72.875427
4671.875000	-72.047066
4687.500000	-70.446480
4703.125000	-68.071976
4718.750000	-65.535263
4734.375000	-64.524048
4750.000000	-65.817520
4765.625000	-68.723167
4781.250000	-71.740875
4796.875000	-73.503647
4812.500000	-74.820335
4828.125000	-75.671951
4843.750000	-75.825844
4859.375000	-75.900093
4875.000000	-75.705963
4890.625000	-74.806160
4906.250000	-73.182678
4921.875000	-71.258377
4937.500000	-69.324669
4953.125000	-68.359802
4968.750000	-68.867653
4984.375000	-70.843430
5000.000000	-73.135063
5015.625000	-75.061653
5031.250000	-76.629356
5046.875000	-77.536835
5062.500000	-77.926544
5078.125000	-77.965637
5093.750000	-77.829887
5109.375000	-77.345016
5125.000000	-76.458519
5140.625000	-75.113266
5156.250000	-73.190804
5171.875000	-71.877869
5187.500000	-71.384674
5203.125000	-72.347672
5218.750000	-73.956360
5234.375000	-75.694710
5250.000000	-77.174377
5265.625000	-78.604149
5281.250000	-79.298729
5296.875000	-79.437355
5312.500000	-79.297096
5328.125000	-78.803261
5343.750000	-77.968941
5359.375000	-77.214157
5375.000000	-76.019943
5390.625000	-74.787743
5406.250000	-73.781113
5421.875000	-73.456474
5437.500000	-74.029091
5453.125000	-75.576881
5468.750000	-77.196198
5484.375000	-78.585457
5500.000000	-79.145004
5515.625000	-79.891907
5531.250000	-80.273407
5546.875000	-80.252235
5562.500000	-79.935730
5578.125000	-79.040970
5593.750000	-77.805939
5609.375000	-76.260727
5625.000000	-74.669571
5640.625000	-73.223450
5656.250000	-73.251228
5671.875000	-74.467796
5687.500000	-76.080811
5703.125000	-77.687561
5718.750000	-79.265160
5734.375000	-80.166016
5750.000000	-80.835228
5765.625000	-80.910118
5781.250000	-80.643021
5796.875000	-80.019814
5812.500000	-79.044373
5828.125000	-77.609222
5843.750000	-75.858734
5859.375000	-74.091949
5875.000000	-73.261490
5890.625000	-74.008392
5906.250000	-75.979225
5921.875000	-77.898293
5937.500000	-79.427361
5953.125000	-80.744820
5968.750000	-81.480392
5984.375000	-81.663826
6000.000000	-81.862556
6015.625000	-81.302872
6031.250000	-80.563644
6046.875000	-79.222397
6062.500000	-77.185600
6078.125000	-75.227127
6093.750000	-73.953796
6109.375000	-74.217247
6125.000000	-76.082176
6140.625000	-78.287689
6156.250000	-79.973877
6171.875000	-81.648819
6187.500000	-82.452629
6203.125000	-82.743645
6218.750000	-83.011543
6234.375000	-82.720772
6250.000000	-82.072693
6265.625000	-80.930656
6281.250000	-79.322433
6296.875000	-77.178757
6312.500000	-75.566368
6328.125000	-75.206741
6343.750000	-76.494652
6359.375000	-78.793663
6375.000000	-80.907959
6390.625000	-82.623695
6406.250000	-83.850685
6421.875000	-84.464264
6437.500000	-84.710083
6453.125000	-84.566551
6468.750000	-84.220276
6484.375000	-83.294197
6500.000000	-81.933861
6515.625000	-80.389412
6531.250000	-78.135750
6546.875000	-76.584839
6562.500000	-77.523270
6578.125000	-80.182602
6593.750000	-82.651489
6609.375000	-84.390732
6625.000000	-85.617226
6640.625000	-86.605789
6656.250000	-87.203186
6671.875000	-87.599121
6687.500000	-87.230789
6703.125000	-86.859344
6718.750000	-86.011215
6734.375000	-84.215721
6750.000000	-81.989594
6765.625000	-80.229012
6781.250000	-80.253662
6796.875000	-82.712967
6812.500000	-85.411766
6828.125000	-87.215164
6843.750000	-88.351715
6859.375000	-89.316162
6875.000000	-89.993690
6890.625000	-90.395638
6906.250000	-90.890190
6921.875000	-90.533516
6937.500000	-89.877815
6953.125000	-88.998978
6968.750000	-87.324402
6984.375000	-85.337051
7000.000000	-85.048409
7015.625000	-86.663704
7031.250000	-89.133469
7046.875000	-90.694077
7062.500000	-91.859688
7078.125000	-92.799866
7093.750000	-93.346291
7109.375000	-93.458221
7125.000000	-93.782631
7140.625000	-93.620018
7156.250000	-93.393456
7171.875000	-93.136787
7187.500000	-92.516388
7203.125000	-91.477501
7218.750000	-90.860573
7234.375000	-91.659798
7250.000000	-93.006126
7265.625000	-93.812416
7281.250000	-94.328728
7296.875000	-94.468506
7312.500000	-94.629425
7328.125000	-94.671082
7343.750000	-94.768303
7359.375000	-94.713684
7375.000000	-94.917961
7390.625000	-94.898109
7406.250000	-94.774712
7421.875000	-94.593773
7437.500000	-94.402885
7453.125000	-94.523102
7468.750000	-94.787247
7484.375000	-94.989594
7500.000000	-95.164833
7515.625000	-95.545525
7531.250000	-95.643646
7546.875000	-96.036438
7562.500000	-96.873672
7578.125000	-97.179146
7593.750000	-97.712128
7609.375000	-98.416389
7625.000000	-99.462914
7640.625000	-100.748596
7656.250000	-101.821541
7671.875000	-103.563324
7687.500000	-105.436966
7703.125000	-107.082260
7718.750000	-109.480217
7734.375000	-112.021835
7750.000000	-114.608658
7765.625000	-117.676758
7781.250000	-121.215828
7796.875000	-124.894272
7812.500000	-129.082703
7828.125000	-133.663010
7843.750000	-138.790894
7859.375000	-144.306091
7875.000000	-149.849289
7890.625000	-156.169724
7906.250000	-163.186157
7921.875000	-169.802795
7937.500000	-176.533951
7953.125000	-179.498276
7968.750000	-180.448700
7984.375000	-180.908554
