Frequency (Hz)	Level (dB)
15.625000	-71.864258
31.250000	-66.898804
46.875000	-64.303322
62.500000	-62.696606
78.125000	-60.931564
93.750000	-60.626907
109.375000	-59.606800
125.000000	-59.022835
140.625000	-61.196785
156.250000	-59.954937
171.875000	-57.485943
187.500000	-53.637913
203.125000	-48.815392
218.750000	-47.440765
234.375000	-50.821133
250.000000	-55.572769
265.625000	-58.718536
281.250000	-60.675880
296.875000	-61.877773
312.500000	-62.588303
328.125000	-62.582966
343.750000	-62.343323
359.375000	-61.508034
375.000000	-59.983486
390.625000	-58.285549
406.250000	-56.281082
421.875000	-54.358467
437.500000	-53.132824
453.125000	-53.700802
468.750000	-55.580212
484.375000	-58.213497
500.000000	-60.231319
515.625000	-61.477509
531.250000	-62.111153
546.875000	-62.295395
562.500000	-62.129974
578.125000	-61.596352
593.750000	-60.464066
609.375000	-58.392025
625.000000	-55.038006
640.625000	-51.451145
656.250000	-50.541153
671.875000	-53.171486
687.500000	-56.344383
703.125000	-58.237896
718.750000	-59.483471
734.375000	-59.976681
750.000000	-60.675323
765.625000	-61.060547
781.250000	-61.055233
796.875000	-60.349041
812.500000	-59.016048
828.125000	-57.335747
843.750000	-55.949696
859.375000	-55.386337
875.000000	-55.354420
890.625000	-55.323921
906.250000	-56.313950
921.875000	-58.284866
937.500000	-59.870201
953.125000	-60.576202
968.750000	-60.896057
984.375000	-60.630798
1000.000000	-60.495972
1015.625000	-60.021736
1031.250000	-59.739079
1046.875000	-59.093117
1062.500000	-58.249001
1078.125000	-57.376122
1093.750000	-55.973866
1109.375000	-53.809681
1125.000000	-50.978382
1140.625000	-48.489132
1156.250000	-48.393150
1171.875000	-50.577145
1187.500000	-53.261311
1203.125000	-55.062775
1218.750000	-55.840477
1234.375000	-56.257862
1250.000000	-56.107544
1265.625000	-55.278511
1281.250000	-53.925442
1296.875000	-51.698490
1312.500000	-48.645519
1328.125000	-45.438877
1343.750000	-43.825401
1359.375000	-45.436722
1375.000000	-48.761818
1390.625000	-51.408752
1406.250000	-53.147434
1421.875000	-54.197861
1437.500000	-54.585567
1453.125000	-54.540329
1468.750000	-54.077282
1484.375000	-53.220661
1500.000000	-51.839684
1515.625000	-50.080723
1531.250000	-47.840206
1546.875000	-45.862549
1562.500000	-45.184013
1578.125000	-46.441368
1593.750000	-48.609329
1609.375000	-50.710464
1625.000000	-52.002052
1640.625000	-52.862118
1656.250000	-53.208996
1671.875000	-53.107002
1687.500000	-52.745575
1703.125000	-52.105957
1718.750000	-51.250854
1734.375000	-50.203724
1750.000000	-48.999809
1765.625000	-48.354389
1781.250000	-48.294205
1796.875000	-48.823631
1812.500000	-49.731045
1828.125000	-50.533218
1843.750000	-51.460812
1859.375000	-52.420040
1875.000000	-53.001915
1890.625000	-53.054829
1906.250000	-53.154255
1921.875000	-53.230732
1937.500000	-52.789715
1953.125000	-52.206524
1968.750000	-51.752445
1984.375000	-51.037884
2000.000000	-50.033081
2015.625000	-49.144650
2031.250000	-48.974903
2046.875000	-48.996506
2062.500000	-49.585632
2078.125000	-50.443153
2093.750000	-51.204132
2109.375000	-51.981804
2125.000000	-52.475124
2140.625000	-52.928783
2156.250000	-53.043598
2171.875000	-53.080235
2187.500000	-52.567101
2203.125000	-51.969555
2218.750000	-50.994690
2234.375000	-49.374615
2250.000000	-47.906349
2265.625000	-46.905415
2281.250000	-46.875034
2296.875000	-47.896416
2312.500000	-49.388336
2328.125000	-50.973171
2343.750000	-52.247093
2359.375000	-53.052402
2375.000000	-53.279564
2390.625000	-53.258816
2406.250000	-52.956966
2421.875000	-52.356796
2437.500000	-51.114147
2453.125000	-49.410698
2468.750000	-47.181000
2484.375000	-45.446644
2500.000000	-45.024899
2515.625000	-46.606064
2531.250000	-48.890881
2546.875000	-50.966572
2562.500000	-52.260063
2578.125000	-52.892258
2593.750000	-53.620773
2609.375000	-53.993637
2625.000000	-53.737293
2640.625000	-52.797791
2656.250000	-51.563717
2671.875000	-49.322197
2687.500000	-46.908607
2703.125000	-44.338791
2718.750000	-43.800095
2734.375000	-45.629585
2750.000000	-48.485294
2765.625000	-50.853886
2781.250000	-52.282314
2796.875000	-53.557384
2812.500000	-54.093174
2828.125000	-54.303135
2843.750000	-53.858242
2859.375000	-52.883110
2875.000000	-51.577480
2890.625000	-49.572720
2906.250000	-46.644299
2921.875000	-43.567688
2937.500000	-42.564404
2953.125000	-44.535736
2968.750000	-47.585960
2984.375000	-50.164791
3000.000000	-51.531689
3015.625000	-52.773411
3031.250000	-53.638199
3046.875000	-53.667629
3062.500000	-53.564568
3078.125000	-52.876682
3093.750000	-51.619831
3109.375000	-49.571011
3125.000000	-46.749454
3140.625000	-43.892780
3156.250000	-42.073483
3171.875000	-43.179562
3187.500000	-46.072811
3203.125000	-48.715549
3218.750000	-51.037304
3234.375000	-52.321354
3250.000000	-52.799530
3265.625000	-52.947319
3281.250000	-52.668221
3296.875000	-51.927811
3312.500000	-50.781250
3328.125000	-49.273674
3343.750000	-46.825676
3359.375000	-43.618492
3375.000000	-41.478214
3390.625000	-41.941196
3406.250000	-44.643593
3421.875000	-47.594128
3437.500000	-49.599205
3453.125000	-50.938812
3468.750000	-51.571114
3484.375000	-51.908485
3500.000000	-51.727692
3515.625000	-51.137501
3531.250000	-50.453972
3546.875000	-49.040546
3562.500000	-46.716461
3578.125000	-43.895931
3593.750000	-41.591438
3609.375000	-41.520164
3625.000000	-43.575111
3640.625000	-46.239311
3656.250000	-48.483887
3671.875000	-50.153755
3687.500000	-51.130482
3703.125000	-51.527817
3718.750000	-51.558754
3734.375000	-51.228031
3750.000000	-50.785645
3765.625000	-49.621105
3781.250000	-47.933182
3796.875000	-45.607601
3812.500000	-43.082790
3828.125000	-41.988731
3843.750000	-43.172001
3859.375000	-45.908802
3875.000000	-48.500732
3890.625000	-50.477264
3906.250000	-51.931622
3921.875000	-53.011951
3937.500000	-53.755913
3953.125000	-53.429829
3968.750000	-53.122978
3984.375000	-52.776535
4000.000000	-51.203278
4015.625000	-48.868320
4031.250000	-45.986568
4046.875000	-43.998032
4062.500000	-44.374104
4078.125000	-47.048355
4093.750000	-50.400536
4109.375000	-53.103706
4125.000000	-54.520447
4140.625000	-55.531708
4156.250000	-56.279316
4171.875000	-56.518536
4187.500000	-56.154953
4203.125000	-55.496147
4218.750000	-54.178574
4234.375000	-52.489395
4250.000000	-49.827118
4265.625000	-47.291889
4281.250000	-47.061081
4296.875000	-49.544144
4312.500000	-52.879326
4328.125000	-55.376816
4343.750000	-57.273808
4359.375000	-58.478374
4375.000000	-59.243080
4390.625000	-59.344147
4406.250000	-59.040157
4421.875000	-58.740234
4437.500000	-58.115654
4453.125000	-56.283546
4468.750000	-53.756775
4484.375000	-50.875393
4500.000000	-49.822990
4515.625000	-51.682201
4531.250000	-54.793056
4546.875000	-57.449368
4562.500000	-59.384613
4578.125000	-60.753780
4593.750000	-61.703037
4609.375000	-62.054031
4625.000000	-61.948715
4640.625000	-61.471645
4656.250000	-60.313702
4671.875000	-58.929855
4687.500000	-56.809479
4703.125000	-53.871597
4718.750000	-52.504192
4734.375000	-53.998928
4750.000000	-57.089375
4765.625000	-59.957489
4781.250000	-61.749855
4796.875000	-63.060764
4812.500000	-64.107582
4828.125000	-64.473549
4843.750000	-64.485893
4859.375000	-63.988724
4875.000000	-62.982086
4890.625000	-61.531437
4906.250000	-59.693768
4921.875000	-57.654263
4937.500000	-56.342777
4953.125000	-57.157082
4968.750000	-59.203339
4984.375000	-61.570518
5000.000000	-63.675003
5015.625000	-65.058052
5031.250000	-65.872795
5046.875000	-66.248642
5062.500000	-66.234840
5078.125000	-66.219078
5093.750000	-65.476257
5109.375000	-64.496681
5125.000000	-62.953571
5140.625000	-61.222736
5156.250000	-60.035759
5171.875000	-59.701958
5187.500000	-60.624367
5203.125000	-62.190403
5218.750000	-64.170387
5234.375000	-65.653290
5250.000000	-66.894867
5265.625000	-67.327911
5281.250000	-67.661720
5296.875000	-68.046707
5312.500000	-67.607864
5328.125000	-66.858597
5343.750000	-65.531319
5359.375000	-64.314568
5375.000000	-62.992306
5390.625000	-61.975471
5406.250000	-61.794044
5421.875000	-62.524891
5437.500000	-63.817963
5453.125000	-65.518028
5468.750000	-66.885902
5484.375000	-67.782524
5500.000000	-68.491760
5515.625000	-68.816040
5531.250000	-68.652992
5546.875000	-68.075638
5562.500000	-67.084930
5578.125000	-65.972992
5593.750000	-64.725433
5609.375000	-62.866802
5625.000000	-61.638958
5640.625000	-61.843872
5656.250000	-63.055443
5671.875000	-64.830460
5687.500000	-66.723137
5703.125000	-68.184746
5718.750000	-68.948570
5734.375000	-69.358604
5750.000000	-69.234604
5765.625000	-69.022316
5781.250000	-68.268867
5796.875000	-67.263702
5812.500000	-65.593674
5828.125000	-63.555164
5843.750000	-61.905472
5859.375000	-61.561260
5875.000000	-62.805511
5890.625000	-64.961746
5906.250000	-66.780983
5921.875000	-68.203758
5937.500000	-69.374977
5953.125000	-69.944534
5968.750000	-70.122772
5984.375000	-70.001762
6000.000000	-69.578453
6015.625000	-68.684219
6031.250000	-67.209656
6046.875000	-65.098625
6062.500000	-63.104504
6078.125000	-62.283062
6093.750000	-62.954044
6109.375000	-64.735886
6125.000000	-67.025864
6140.625000	-68.940651
6156.250000	-70.289467
6171.875000	-71.124969
6187.500000	-71.404953
6203.125000	-71.223984
6218.750000	-70.796288
6234.375000	-70.408623
6250.000000	-69.270500
6265.625000	-67.460304
6281.250000	-65.256813
6296.875000	-63.331455
6312.500000	-63.086430
6328.125000	-64.906738
6343.750000	-67.455276
6359.375000	-69.644684
6375.000000	-71.187950
6390.625000	-72.418610
6406.250000	-72.856178
6421.875000	-73.045975
6437.500000	-72.934937
6453.125000	-72.654816
6468.750000	-71.511398
6484.375000	-69.792366
6500.000000	-67.705917
6515.625000	-65.611237
6531.250000	-64.893623
6546.875000	-66.330971
6562.500000	-68.819649
6578.125000	-71.188286
6593.750000	-73.292435
6609.375000	-74.674637
6625.000000	-75.787743
6640.625000	-76.008308
6656.250000	-75.836884
6671.875000	-75.576057
6687.500000	-74.764946
6703.125000	-73.375412
6718.750000	-71.250153
6734.375000	-69.241783
6750.000000	-68.068230
6765.625000	-69.048264
6781.250000	-71.626991
6796.875000	-74.372276
6812.500000	-76.652794
6828.125000	-78.289833
6843.750000	-79.230614
6859.375000	-79.800468
6875.000000	-80.050133
6890.625000	-79.990639
6906.250000	-79.653694
6921.875000	-78.982002
6937.500000	-77.258492
6953.125000	-75.103752
6968.750000	-73.559242
6984.375000	-73.882706
7000.000000	-76.191055
7015.625000	-79.268967
7031.250000	-81.533165
7046.875000	-83.416077
7062.500000	-84.814903
7078.125000	-85.670990
7093.750000	-86.010521
7109.375000	-86.347595
7125.000000	-86.021606
7140.625000	-85.370934
7156.250000	-84.295761
7171.875000	-82.385735
7187.500000	-80.620560
7203.125000	-80.473381
7218.750000	-82.500542
7234.375000	-85.402176
7250.000000	-87.970222
7265.625000	-89.501259
7281.250000	-90.845390
7296.875000	-91.448616
7312.500000	-91.728012
7328.125000	-92.223068
7343.750000	-92.293488
7359.375000	-92.118225
7375.000000	-91.605713
7390.625000	-90.757530
7406.250000	-89.847153
7421.875000	-89.477135
7437.500000	-90.538681
7453.125000	-91.913338
7468.750000	-93.368774
7484.375000	-94.324432
7500.000000	-94.835037
7515.625000	-95.306229
7531.250000	-95.559555
7546.875000	-95.963303
7562.500000	-96.578583
7578.125000	-96.952240
7593.750000	-97.342636
7609.375000	-98.140511
7625.000000	-99.043724
7640.625000	-100.158501
7656.250000	-101.719200
7671.875000	-103.454208
7687.500000	-105.148300
7703.125000	-107.118431
7718.750000	-109.232788
7734.375000	-111.771889
7750.000000	-114.579430
7765.625000	-117.814926
7781.250000	-121.221138
7796.875000	-124.767654
7812.500000	-129.009857
7828.125000	-133.530777
7843.750000	-138.640656
7859.375000	-143.616943
7875.000000	-149.494675
7890.625000	-156.169983
7906.250000	-163.089508
7921.875000	-169.571777
7937.500000	-174.318710
7953.125000	-176.033340
7968.750000	-176.559784
7984.375000	-176.737274
