Frequency (Hz)	Level (dB)
15.625000	-64.281502
31.250000	-58.891808
46.875000	-56.873199
62.500000	-56.648643
78.125000	-56.966358
93.750000	-57.466141
109.375000	-58.114231
125.000000	-58.748444
140.625000	-60.014141
156.250000	-60.662464
171.875000	-60.605785
187.500000	-60.767109
203.125000	-60.908936
218.750000	-60.510845
234.375000	-59.843956
250.000000	-58.810257
265.625000	-57.395889
281.250000	-55.561798
296.875000	-52.710693
312.500000	-49.305645
328.125000	-47.222263
343.750000	-48.560120
359.375000	-52.105179
375.000000	-55.562881
390.625000	-58.363457
406.250000	-60.370613
421.875000	-61.827011
437.500000	-62.942295
453.125000	-63.491032
468.750000	-63.948734
484.375000	-64.500778
500.000000	-64.391090
515.625000	-64.355515
531.250000	-64.237923
546.875000	-63.931812
562.500000	-63.366409
578.125000	-62.463379
593.750000	-61.371918
609.375000	-59.855476
625.000000	-57.593033
640.625000	-55.191887
656.250000	-52.993111
671.875000	-52.835423
687.500000	-54.231972
703.125000	-56.113689
718.750000	-58.039146
734.375000	-59.783321
750.000000	-61.611050
765.625000	-63.057255
781.250000	-63.951340
796.875000	-64.475937
812.500000	-64.880333
828.125000	-65.222687
843.750000	-64.972588
859.375000	-64.848129
875.000000	-64.600769
890.625000	-63.767498
906.250000	-62.887276
921.875000	-62.014427
937.500000	-61.170277
953.125000	-59.920811
968.750000	-57.789368
984.375000	-55.452507
1000.000000	-54.079826
1015.625000	-54.883732
1031.250000	-57.060238
1046.875000	-59.242825
1062.500000	-61.038837
1078.125000	-62.439301
1093.750000	-63.552238
1109.375000	-64.220291
1125.000000	-64.555855
1140.625000	-64.860161
1156.250000	-64.997513
1171.875000	-64.939087
1187.500000	-64.723007
1203.125000	-64.288345
1218.750000	-63.627892
1234.375000	-63.130184
1250.000000	-62.752899
1265.625000	-62.664772
1281.250000	-62.431107
1296.875000	-61.808804
1312.500000	-60.916054
1328.125000	-59.681389
1343.750000	-58.746304
1359.375000	-58.514542
1375.000000	-59.143784
1390.625000	-59.945358
1406.250000	-60.579613
1421.875000	-60.926559
1437.500000	-61.120075
1453.125000	-61.269672
1468.750000	-61.439137
1484.375000	-61.324528
1500.000000	-61.180614
1515.625000	-61.502613
1531.250000	-61.834370
1546.875000	-62.079388
1562.500000	-62.114098
1578.125000	-62.175674
1593.750000	-61.686390
1609.375000	-60.957211
1625.000000	-60.259838
1640.625000	-58.752403
1656.250000	-56.968090
1671.875000	-55.011402
1687.500000	-52.428352
1703.125000	-49.649414
1718.750000	-48.346901
1734.375000	-49.501747
1750.000000	-51.918922
1765.625000	-54.431820
1781.250000	-56.251686
1796.875000	-57.502167
1812.500000	-58.597260
1828.125000	-59.358505
1843.750000	-59.648003
1859.375000	-59.948818
1875.000000	-59.931408
1890.625000	-59.722141
1906.250000	-59.679768
1921.875000	-59.071037
1937.500000	-58.266872
1953.125000	-56.907944
1968.750000	-55.502228
1984.375000	-54.111488
2000.000000	-51.723293
2015.625000	-49.989563
2031.250000	-48.838989
2046.875000	-49.024445
2062.500000	-50.519135
2078.125000	-52.733219
2093.750000	-54.387043
2109.375000	-55.814434
2125.000000	-56.984844
2140.625000	-57.954773
2156.250000	-58.277714
2171.875000	-58.456051
2187.500000	-59.222893
2203.125000	-59.200661
2218.750000	-58.824577
2234.375000	-58.658379
2250.000000	-58.464729
2265.625000	-57.960922
2281.250000	-57.120388
2296.875000	-56.097897
2312.500000	-55.031075
2328.125000	-54.213821
2343.750000	-53.615459
2359.375000	-53.404072
2375.000000	-53.328320
2390.625000	-53.706608
2406.250000	-54.567783
2421.875000	-55.511551
2437.500000	-56.675865
2453.125000	-57.623436
2468.750000	-58.321301
2484.375000	-58.948971
2500.000000	-59.084404
2515.625000	-59.285217
2531.250000	-59.660820
2546.875000	-59.890652
2562.500000	-60.123230
2578.125000	-60.170635
2593.750000	-60.143181
2609.375000	-59.957283
2625.000000	-59.447468
2640.625000	-59.078922
2656.250000	-58.637733
2671.875000	-58.144386
2687.500000	-57.448872
2703.125000	-56.753777
2718.750000	-56.031036
2734.375000	-55.905640
2750.000000	-56.121510
2765.625000	-56.749680
2781.250000	-57.828022
2796.875000	-58.413231
2812.500000	-58.967934
2828.125000	-59.820210
2843.750000	-60.496708
2859.375000	-61.152317
2875.000000	-61.425716
2890.625000	-61.816433
2906.250000	-62.067959
2921.875000	-62.145660
2937.500000	-62.377243
2953.125000	-62.252083
2968.750000	-62.087612
2984.375000	-61.558434
3000.000000	-61.077267
3015.625000	-60.450504
3031.250000	-59.550369
3046.875000	-58.644691
3062.500000	-57.928200
3078.125000	-56.991211
3093.750000	-56.341805
3109.375000	-56.294189
3125.000000	-56.703609
3140.625000	-57.485386
3156.250000	-58.343056
3171.875000	-59.333485
3187.500000	-60.263836
3203.125000	-61.241642
3218.750000	-62.076889
3234.375000	-62.492401
3250.000000	-62.697605
3265.625000	-62.913647
3281.250000	-62.877201
3296.875000	-62.667004
3312.500000	-62.683655
3328.125000	-62.158718
3343.750000	-61.548134
3359.375000	-60.911114
3375.000000	-59.820667
3390.625000	-58.334255
3406.250000	-56.942207
3421.875000	-55.485195
3437.500000	-54.426765
3453.125000	-54.444344
3468.750000	-55.269527
3484.375000	-56.856480
3500.000000	-58.440937
3515.625000	-59.872147
3531.250000	-60.724678
3546.875000	-61.306351
3562.500000	-62.046139
3578.125000	-62.745304
3593.750000	-63.096828
3609.375000	-63.138859
3625.000000	-63.064587
3640.625000	-62.902790
3656.250000	-62.827835
3671.875000	-62.141769
3687.500000	-61.199429
3703.125000	-60.352108
3718.750000	-58.971371
3734.375000	-57.205269
3750.000000	-55.297535
3765.625000	-53.622196
3781.250000	-53.022690
3796.875000	-53.486366
3812.500000	-55.117130
3828.125000	-56.886978
3843.750000	-58.615547
3859.375000	-59.880165
3875.000000	-60.921326
3890.625000	-61.790890
3906.250000	-62.480171
3921.875000	-62.663586
3937.500000	-62.801857
3953.125000	-63.158539
3968.750000	-63.029491
3984.375000	-62.677631
4000.000000	-62.242908
4015.625000	-61.539646
4031.250000	-60.589321
4046.875000	-59.601894
4062.500000	-58.052025
4078.125000	-56.493286
4093.750000	-54.961338
4109.375000	-53.974625
4125.000000	-53.935852
4140.625000	-54.523628
4156.250000	-56.078365
4171.875000	-57.718407
4187.500000	-59.251812
4203.125000	-60.762897
4218.750000	-61.826511
4234.375000	-62.686840
4250.000000	-63.231224
4265.625000	-63.500805
4281.250000	-63.781219
4296.875000	-64.017639
4312.500000	-64.197937
4328.125000	-64.145515
4343.750000	-63.370655
4359.375000	-62.846554
4375.000000	-62.011734
4390.625000	-61.066711
4406.250000	-59.941460
4421.875000	-58.375149
4437.500000	-56.732105
4453.125000	-55.432968
4468.750000	-55.204170
4484.375000	-56.313335
4500.000000	-58.230576
4515.625000	-60.166157
4531.250000	-61.622475
4546.875000	-62.863037
4562.500000	-64.039993
4578.125000	-65.359909
4593.750000	-66.305740
4609.375000	-66.570076
4625.000000	-67.077606
4640.625000	-67.219299
4656.250000	-67.126328
4671.875000	-66.762886
4687.500000	-66.640251
4703.125000	-66.004875
4718.750000	-65.580856
4734.375000	-64.637093
4750.000000	-63.098713
4765.625000	-61.331947
4781.250000	-59.429993
4796.875000	-58.082977
4812.500000	-58.144600
4828.125000	-59.644951
4843.750000	-61.721676
4859.375000	-64.025330
4875.000000	-65.784958
4890.625000	-66.915184
4906.250000	-68.409012
4921.875000	-69.140236
4937.500000	-69.705322
4953.125000	-70.245796
4968.750000	-70.967667
4984.375000	-71.358353
5000.000000	-70.893143
5015.625000	-70.557198
5031.250000	-70.284065
5046.875000	-69.564400
5062.500000	-68.801605
5078.125000	-67.997887
5093.750000	-66.268768
5109.375000	-64.509796
5125.000000	-62.110538
5140.625000	-60.840733
5156.250000	-61.571892
5171.875000	-63.634560
5187.500000	-66.004776
5203.125000	-68.021866
5218.750000	-69.647583
5234.375000	-70.754524
5250.000000	-71.887856
5265.625000	-72.982033
5281.250000	-73.474724
5296.875000	-73.987465
5312.500000	-74.313065
5328.125000	-74.349991
5343.750000	-74.033356
5359.375000	-73.887611
5375.000000	-73.536064
5390.625000	-72.876930
5406.250000	-72.070915
5421.875000	-70.582100
5437.500000	-69.023514
5453.125000	-66.674019
5468.750000	-64.534599
5484.375000	-63.638245
5500.000000	-64.573967
5515.625000	-66.822723
5531.250000	-69.220924
5546.875000	-71.319756
5562.500000	-73.078049
5578.125000	-74.350342
5593.750000	-75.404999
5609.375000	-76.049690
5625.000000	-76.651482
5640.625000	-76.920631
5656.250000	-77.169960
5671.875000	-77.060135
5687.500000	-77.058319
5703.125000	-76.663361
5718.750000	-76.004936
5734.375000	-75.475838
5750.000000	-74.451065
5765.625000	-72.680336
5781.250000	-71.005486
5796.875000	-68.721558
5812.500000	-66.573425
5828.125000	-66.075096
5843.750000	-67.802071
5859.375000	-70.526299
5875.000000	-72.698410
5890.625000	-74.485245
5906.250000	-76.088387
5921.875000	-77.416122
5937.500000	-78.302475
5953.125000	-79.174805
5968.750000	-79.563881
5984.375000	-79.631042
6000.000000	-79.870590
6015.625000	-79.941620
6031.250000	-79.528458
6046.875000	-79.166870
6062.500000	-78.575050
6078.125000	-77.683105
6093.750000	-76.406113
6109.375000	-74.742142
6125.000000	-72.725563
6140.625000	-70.298958
6156.250000	-68.585197
6171.875000	-69.171310
6187.500000	-71.553047
6203.125000	-74.123001
6218.750000	-76.496498
6234.375000	-78.444489
6250.000000	-79.929169
6265.625000	-81.072701
6281.250000	-81.547012
6296.875000	-82.155312
6312.500000	-82.716080
6328.125000	-83.110016
6343.750000	-83.318314
6359.375000	-83.277634
6375.000000	-82.973053
6390.625000	-82.533165
6406.250000	-82.110214
6421.875000	-81.039787
6437.500000	-79.639000
6453.125000	-78.170479
6468.750000	-76.152290
6484.375000	-74.014381
6500.000000	-73.475296
6515.625000	-74.987099
6531.250000	-77.505943
6546.875000	-79.996880
6562.500000	-81.906776
6578.125000	-83.407646
6593.750000	-84.821800
6609.375000	-85.989906
6625.000000	-86.589424
6640.625000	-87.068161
6656.250000	-87.685692
6671.875000	-88.166580
6687.500000	-88.141342
6703.125000	-88.087112
6718.750000	-88.044434
6734.375000	-87.757965
6750.000000	-87.019409
6765.625000	-86.271523
6781.250000	-85.694977
6796.875000	-84.482460
6812.500000	-83.127472
6828.125000	-82.122887
6843.750000	-82.283920
6859.375000	-83.790894
6875.000000	-85.956322
6890.625000	-87.916412
6906.250000	-89.465622
6921.875000	-90.751595
6937.500000	-91.634544
6953.125000	-91.880692
6968.750000	-92.503036
6984.375000	-92.893417
7000.000000	-92.944138
7015.625000	-93.383072
7031.250000	-93.633904
7046.875000	-93.607796
7062.500000	-93.623184
7078.125000	-93.729599
7093.750000	-93.665497
7109.375000	-93.128662
7125.000000	-92.985031
7140.625000	-92.806137
7156.250000	-92.617455
7171.875000	-92.549629
7187.500000	-92.806129
7203.125000	-93.049873
7218.750000	-93.559639
7234.375000	-94.134232
7250.000000	-94.384071
7265.625000	-94.542587
7281.250000	-94.669540
7296.875000	-94.908195
7312.500000	-94.969589
7328.125000	-95.017899
7343.750000	-94.955765
7359.375000	-94.793327
7375.000000	-94.995590
7390.625000	-94.939568
7406.250000	-95.052803
7421.875000	-95.024269
7437.500000	-95.055023
7453.125000	-95.026085
7468.750000	-95.048851
7484.375000	-95.228241
7500.000000	-95.512680
7515.625000	-95.789932
7531.250000	-96.036125
7546.875000	-96.324959
7562.500000	-96.484535
7578.125000	-96.928238
7593.750000	-97.744370
7609.375000	-98.773117
7625.000000	-99.553520
7640.625000	-100.813896
7656.250000	-102.268135
7671.875000	-103.763359
7687.500000	-105.630783
7703.125000	-107.457306
7718.750000	-109.645515
7734.375000	-112.276802
7750.000000	-115.171371
7765.625000	-118.005829
7781.250000	-121.166252
7796.875000	-124.885933
7812.500000	-129.093918
7828.125000	-133.524170
7843.750000	-138.474716
7859.375000	-143.850204
7875.000000	-149.754211
7890.625000	-156.379272
7906.250000	-163.249283
7921.875000	-170.827271
7937.500000	-176.794952
7953.125000	-179.735291
7968.750000	-180.733765
7984.375000	-181.225815
