Frequency (Hz)	Level (dB)
15.625000	-78.391975
31.250000	-74.826126
46.875000	-72.418716
62.500000	-71.158463
78.125000	-71.264946
93.750000	-72.357574
109.375000	-71.248627
125.000000	-71.069397
140.625000	-76.539970
156.250000	-77.735779
171.875000	-78.009163
187.500000	-78.373085
203.125000	-78.598808
218.750000	-78.013206
234.375000	-76.415428
250.000000	-77.043579
265.625000	-76.508995
281.250000	-74.542252
296.875000	-71.881622
312.500000	-68.644669
328.125000	-66.629265
343.750000	-67.749481
359.375000	-71.176979
375.000000	-74.699852
390.625000	-77.477753
406.250000	-79.331238
421.875000	-80.376572
437.500000	-81.289177
453.125000	-81.699287
468.750000	-81.994789
484.375000	-82.184395
500.000000	-82.210846
515.625000	-82.448608
531.250000	-82.337837
546.875000	-82.029938
562.500000	-81.865738
578.125000	-81.685013
593.750000	-81.099724
609.375000	-79.788078
625.000000	-77.960915
640.625000	-75.808060
656.250000	-73.703003
671.875000	-72.913101
687.500000	-74.236580
703.125000	-75.856789
718.750000	-77.471619
734.375000	-79.358002
750.000000	-80.910553
765.625000	-81.921173
781.250000	-82.585495
796.875000	-83.047295
812.500000	-83.482986
828.125000	-83.857582
843.750000	-83.845085
859.375000	-83.706123
875.000000	-83.288605
890.625000	-82.803703
906.250000	-82.004539
921.875000	-81.371124
937.500000	-80.756996
953.125000	-79.862869
968.750000	-78.363358
984.375000	-76.177956
1000.000000	-74.644691
1015.625000	-74.792725
1031.250000	-76.653183
1046.875000	-78.967117
1062.500000	-80.687485
1078.125000	-82.091850
1093.750000	-83.058281
1109.375000	-83.728836
1125.000000	-84.054642
1140.625000	-83.878281
1156.250000	-83.960968
1171.875000	-84.247650
1187.500000	-84.031998
1203.125000	-83.691772
1218.750000	-83.332863
1234.375000	-82.959183
1250.000000	-82.845085
1265.625000	-82.641769
1281.250000	-82.340675
1296.875000	-81.827690
1312.500000	-81.252068
1328.125000	-80.263985
1343.750000	-79.217621
1359.375000	-78.414474
1375.000000	-78.646423
1390.625000	-79.606026
1406.250000	-80.351311
1421.875000	-80.848038
1437.500000	-81.026138
1453.125000	-81.488258
1468.750000	-81.459496
1484.375000	-81.294716
1500.000000	-81.344872
1515.625000	-81.544861
1531.250000	-81.860741
1546.875000	-82.060608
1562.500000	-82.242989
1578.125000	-82.034325
1593.750000	-82.055984
1609.375000	-81.480270
1625.000000	-80.440231
1640.625000	-79.381363
1656.250000	-78.101456
1671.875000	-76.530136
1687.500000	-74.027435
1703.125000	-70.941925
1718.750000	-68.921631
1734.375000	-69.093803
1750.000000	-71.474609
1765.625000	-73.890320
1781.250000	-76.064804
1796.875000	-77.582375
1812.500000	-78.825340
1828.125000	-79.414551
1843.750000	-79.691452
1859.375000	-80.108627
1875.000000	-80.436363
1890.625000	-80.281197
1906.250000	-79.893745
1921.875000	-79.146553
1937.500000	-78.728767
1953.125000	-78.053482
1968.750000	-76.824440
1984.375000	-75.293526
2000.000000	-73.582253
2015.625000	-71.410553
2031.250000	-69.675751
2046.875000	-69.247543
2062.500000	-70.306786
2078.125000	-72.259125
2093.750000	-74.120468
2109.375000	-75.664085
2125.000000	-76.792297
2140.625000	-77.645279
2156.250000	-78.273605
2171.875000	-79.036545
2187.500000	-79.324768
2203.125000	-79.367661
2218.750000	-79.419472
2234.375000	-79.369438
2250.000000	-79.188004
2265.625000	-78.650276
2281.250000	-77.893181
2296.875000	-77.074677
2312.500000	-76.165443
2328.125000	-75.415970
2343.750000	-74.583122
2359.375000	-73.855156
2375.000000	-73.802879
2390.625000	-73.983246
2406.250000	-74.599380
2421.875000	-75.498978
2437.500000	-76.433983
2453.125000	-77.478760
2468.750000	-78.174690
2484.375000	-78.952988
2500.000000	-79.395538
2515.625000	-79.905258
2531.250000	-80.311150
2546.875000	-80.503395
2562.500000	-80.408485
2578.125000	-80.665436
2593.750000	-80.519157
2609.375000	-80.405655
2625.000000	-80.504799
2640.625000	-79.943855
2656.250000	-79.388252
2671.875000	-78.821114
2687.500000	-78.233452
2703.125000	-77.533401
2718.750000	-77.168716
2734.375000	-77.000763
2750.000000	-76.944214
2765.625000	-77.210503
2781.250000	-77.543495
2796.875000	-78.340881
2812.500000	-79.203751
2828.125000	-79.923721
2843.750000	-80.478905
2859.375000	-81.043449
2875.000000	-81.658699
2890.625000	-82.033630
2906.250000	-82.192055
2921.875000	-82.334099
2937.500000	-82.289940
2953.125000	-82.358627
2968.750000	-82.388649
2984.375000	-81.968880
3000.000000	-81.637863
3015.625000	-81.476067
3031.250000	-80.788460
3046.875000	-79.939003
3062.500000	-79.287682
3078.125000	-78.173721
3093.750000	-77.187599
3109.375000	-76.891624
3125.000000	-76.758011
3140.625000	-77.364281
3156.250000	-78.217323
3171.875000	-79.323059
3187.500000	-80.135857
3203.125000	-80.984314
3218.750000	-81.745361
3234.375000	-82.468437
3250.000000	-82.970375
3265.625000	-83.073883
3281.250000	-83.074738
3296.875000	-83.193909
3312.500000	-82.857224
3328.125000	-82.720627
3343.750000	-82.482307
3359.375000	-81.689102
3375.000000	-81.039589
3390.625000	-80.104744
3406.250000	-78.868111
3421.875000	-77.170120
3437.500000	-75.653954
3453.125000	-75.054214
3468.750000	-75.084373
3484.375000	-76.126251
3500.000000	-77.511482
3515.625000	-79.025337
3531.250000	-80.431686
3546.875000	-81.404892
3562.500000	-82.087761
3578.125000	-82.582657
3593.750000	-83.115646
3609.375000	-83.228088
3625.000000	-83.327850
3640.625000	-83.538170
3656.250000	-83.167175
3671.875000	-82.707588
3687.500000	-82.144295
3703.125000	-81.462044
3718.750000	-80.266441
3734.375000	-79.029099
3750.000000	-77.493469
3765.625000	-75.859848
3781.250000	-74.375359
3796.875000	-73.557800
3812.500000	-74.336090
3828.125000	-75.927101
3843.750000	-77.691833
3859.375000	-79.233955
3875.000000	-80.708099
3890.625000	-81.494835
3906.250000	-82.206703
3921.875000	-82.824791
3937.500000	-83.171524
3953.125000	-83.508522
3968.750000	-83.507271
3984.375000	-83.202728
4000.000000	-82.985725
4015.625000	-82.745163
4031.250000	-82.102356
4046.875000	-81.291870
4062.500000	-80.314896
4078.125000	-78.739494
4093.750000	-77.075325
4109.375000	-75.379242
4125.000000	-74.441940
4140.625000	-74.268379
4156.250000	-75.016441
4171.875000	-76.688240
4187.500000	-78.444511
4203.125000	-80.141327
4218.750000	-81.302017
4234.375000	-82.150459
4250.000000	-82.972305
4265.625000	-83.601151
4281.250000	-83.857094
4296.875000	-84.207275
4312.500000	-84.276230
4328.125000	-84.211304
4343.750000	-83.980019
4359.375000	-83.740768
4375.000000	-83.438332
4390.625000	-82.823074
4406.250000	-81.469582
4421.875000	-80.175209
4437.500000	-78.936592
4453.125000	-77.516281
4468.750000	-76.264824
4484.375000	-76.169846
4500.000000	-77.210793
4515.625000	-78.777473
4531.250000	-80.642952
4546.875000	-82.242653
4562.500000	-83.542816
4578.125000	-84.544373
4593.750000	-85.432030
4609.375000	-85.992523
4625.000000	-86.228378
4640.625000	-86.841904
4656.250000	-86.748985
4671.875000	-86.833450
4687.500000	-86.804840
4703.125000	-86.609230
4718.750000	-86.034912
4734.375000	-85.416443
4750.000000	-84.981880
4765.625000	-83.772324
4781.250000	-82.097672
4796.875000	-80.167236
4812.500000	-79.055717
4828.125000	-79.001266
4843.750000	-79.958664
4859.375000	-81.791275
4875.000000	-83.876495
4890.625000	-85.526306
4906.250000	-86.623871
4921.875000	-87.678162
4937.500000	-88.500290
4953.125000	-88.853340
4968.750000	-89.532860
4984.375000	-89.836586
5000.000000	-89.832512
5015.625000	-89.944283
5031.250000	-89.834198
5046.875000	-89.457077
5062.500000	-89.079056
5078.125000	-88.247482
5093.750000	-87.623566
5109.375000	-86.483788
5125.000000	-84.630226
5140.625000	-82.935349
5156.250000	-81.564758
5171.875000	-81.604309
5187.500000	-83.159317
5203.125000	-85.159767
5218.750000	-87.301414
5234.375000	-88.827324
5250.000000	-90.040413
5265.625000	-90.494087
5281.250000	-90.763992
5296.875000	-91.260658
5312.500000	-91.465714
5328.125000	-91.623161
5343.750000	-91.622032
5359.375000	-91.726456
5375.000000	-91.773506
5390.625000	-91.370903
5406.250000	-91.126068
5421.875000	-90.746490
5437.500000	-90.027367
5453.125000	-88.699715
5468.750000	-86.819397
5484.375000	-84.882919
5500.000000	-83.928963
5515.625000	-84.437134
5531.250000	-86.360268
5546.875000	-88.447136
5562.500000	-89.801376
5578.125000	-90.938057
5593.750000	-91.872566
5609.375000	-92.275757
5625.000000	-92.602959
5640.625000	-92.612068
5656.250000	-92.755920
5671.875000	-92.888214
5687.500000	-92.811089
5703.125000	-92.861656
5718.750000	-93.084610
5734.375000	-92.856407
5750.000000	-92.526260
5765.625000	-91.834740
5781.250000	-91.248779
5796.875000	-90.033760
5812.500000	-88.453888
5828.125000	-86.719803
5843.750000	-85.982826
5859.375000	-86.945694
5875.000000	-88.875305
5890.625000	-90.736877
5906.250000	-91.986443
5921.875000	-92.602058
5937.500000	-92.874329
5953.125000	-93.427353
5968.750000	-93.802139
5984.375000	-93.632797
6000.000000	-93.591354
6015.625000	-93.840431
6031.250000	-93.877205
6046.875000	-93.645851
6062.500000	-93.697128
6078.125000	-93.470764
6093.750000	-93.263596
6109.375000	-93.012733
6125.000000	-92.408676
6140.625000	-91.439224
6156.250000	-90.265030
6171.875000	-88.918159
6187.500000	-88.533318
6203.125000	-89.690247
6218.750000	-91.280357
6234.375000	-92.649040
6250.000000	-93.391327
6265.625000	-93.766624
6281.250000	-93.973167
6296.875000	-94.063858
6312.500000	-94.161537
6328.125000	-94.269089
6343.750000	-94.360794
6359.375000	-94.427025
6375.000000	-94.338058
6390.625000	-94.430756
6406.250000	-94.515915
6421.875000	-94.511772
6437.500000	-94.247147
6453.125000	-94.053268
6468.750000	-93.533752
6484.375000	-93.085365
6500.000000	-92.361771
6515.625000	-91.819916
6531.250000	-92.128960
6546.875000	-92.827507
6562.500000	-93.513313
6578.125000	-94.295540
6593.750000	-94.587196
6609.375000	-94.507217
6625.000000	-94.528023
6640.625000	-94.607155
6656.250000	-94.867516
6671.875000	-95.014694
6687.500000	-94.840546
6703.125000	-94.710411
6718.750000	-94.784729
6734.375000	-94.756035
6750.000000	-94.942719
6765.625000	-94.942688
6781.250000	-94.832314
6796.875000	-94.790901
6812.500000	-94.842087
6828.125000	-94.611427
6843.750000	-94.517952
6859.375000	-94.466347
6875.000000	-94.413620
6890.625000	-94.550827
6906.250000	-94.726387
6921.875000	-94.865921
6937.500000	-95.062393
6953.125000	-95.039268
6968.750000	-95.010582
6984.375000	-94.871208
7000.000000	-94.886703
7015.625000	-95.022522
7031.250000	-95.167961
7046.875000	-95.169792
7062.500000	-94.879807
7078.125000	-94.793884
7093.750000	-94.953568
7109.375000	-95.181267
7125.000000	-95.010735
7140.625000	-95.086548
7156.250000	-95.043869
7171.875000	-94.871696
7187.500000	-94.948090
7203.125000	-94.734184
7218.750000	-94.835999
7234.375000	-95.048592
7250.000000	-94.923462
7265.625000	-95.108772
7281.250000	-95.186852
7296.875000	-95.007744
7312.500000	-94.950714
7328.125000	-95.063347
7343.750000	-95.287422
7359.375000	-95.287941
7375.000000	-95.157509
7390.625000	-95.172646
7406.250000	-95.087685
7421.875000	-95.132431
7437.500000	-95.532272
7453.125000	-95.367096
7468.750000	-95.103310
7484.375000	-95.254677
7500.000000	-95.483185
7515.625000	-95.590042
7531.250000	-96.102409
7546.875000	-96.328461
7562.500000	-96.755791
7578.125000	-97.404022
7593.750000	-98.105339
7609.375000	-98.837418
7625.000000	-99.647537
7640.625000	-100.734406
7656.250000	-102.298218
7671.875000	-103.904404
7687.500000	-105.449020
7703.125000	-107.398376
7718.750000	-109.664734
7734.375000	-112.106430
7750.000000	-115.031197
7765.625000	-117.843239
7781.250000	-121.351852
7796.875000	-125.049850
7812.500000	-129.208160
7828.125000	-133.676880
7843.750000	-138.407990
7859.375000	-143.976379
7875.000000	-150.026382
7890.625000	-156.519577
7906.250000	-163.237915
7921.875000	-170.935257
7937.500000	-177.081009
7953.125000	-180.186859
7968.750000	-181.303070
7984.375000	-181.795853
