Frequency (Hz)	Level (dB)
15.625000	-73.680908
31.250000	-67.880524
46.875000	-64.355629
62.500000	-62.467297
78.125000	-61.401962
93.750000	-60.725723
109.375000	-59.949055
125.000000	-59.281960
140.625000	-59.888832
156.250000	-59.217503
171.875000	-58.303940
187.500000	-57.035988
203.125000	-55.172871
218.750000	-53.213364
234.375000	-50.356312
250.000000	-46.171680
265.625000	-42.728218
281.250000	-42.489712
296.875000	-45.306465
312.500000	-49.131538
328.125000	-51.574696
343.750000	-53.140278
359.375000	-54.161911
375.000000	-55.082397
390.625000	-55.427242
406.250000	-55.409561
421.875000	-55.034813
437.500000	-54.548229
453.125000	-53.835579
468.750000	-52.916931
484.375000	-51.724998
500.000000	-50.345070
515.625000	-48.436775
531.250000	-46.232700
546.875000	-43.211071
562.500000	-41.872143
578.125000	-43.055336
593.750000	-45.721519
609.375000	-48.210938
625.000000	-49.596954
640.625000	-50.672882
656.250000	-51.283001
671.875000	-51.756287
687.500000	-52.315865
703.125000	-52.092739
718.750000	-51.619446
734.375000	-50.689247
750.000000	-49.478775
765.625000	-48.113796
781.250000	-46.254242
796.875000	-43.970154
812.500000	-42.575249
828.125000	-42.273972
843.750000	-42.465664
859.375000	-42.906334
875.000000	-44.021416
890.625000	-45.241615
906.250000	-46.738022
921.875000	-47.822025
937.500000	-48.722641
953.125000	-49.090183
968.750000	-49.253025
984.375000	-48.999264
1000.000000	-48.511818
1015.625000	-47.858749
1031.250000	-47.173958
1046.875000	-46.537025
1062.500000	-45.776604
1078.125000	-45.038876
1093.750000	-44.171448
1109.375000	-43.935135
1125.000000	-44.078922
1140.625000	-44.109680
1156.250000	-44.009876
1171.875000	-44.007812
1187.500000	-44.268147
1203.125000	-44.768105
1218.750000	-45.190720
1234.375000	-45.412930
1250.000000	-45.560104
1265.625000	-45.410786
1281.250000	-45.295303
1296.875000	-45.225540
1312.500000	-44.899624
1328.125000	-44.872570
1343.750000	-44.152103
1359.375000	-43.201710
1375.000000	-41.835617
1390.625000	-39.989441
1406.250000	-37.525772
1421.875000	-34.774132
1437.500000	-32.413910
1453.125000	-31.956179
1468.750000	-33.886612
1484.375000	-36.380077
1500.000000	-38.537239
1515.625000	-39.758911
1531.250000	-40.508057
1546.875000	-41.280743
1562.500000	-41.455254
1578.125000	-41.072395
1593.750000	-40.833237
1609.375000	-40.136829
1625.000000	-39.220451
1640.625000	-37.835083
1656.250000	-36.161285
1671.875000	-33.882095
1687.500000	-31.249025
1703.125000	-29.843609
1718.750000	-30.339207
1734.375000	-32.164761
1750.000000	-34.428909
1765.625000	-36.375225
1781.250000	-37.528908
1796.875000	-38.085712
1812.500000	-38.988815
1828.125000	-39.279259
1843.750000	-39.224663
1859.375000	-39.070038
1875.000000	-38.877377
1890.625000	-38.237610
1906.250000	-36.941704
1921.875000	-35.953354
1937.500000	-34.628593
1953.125000	-33.073517
1968.750000	-31.861422
1984.375000	-31.289137
2000.000000	-31.673380
2015.625000	-32.918736
2031.250000	-34.210941
2046.875000	-35.292015
2062.500000	-36.019333
2078.125000	-36.836056
2093.750000	-37.460655
2109.375000	-37.804909
2125.000000	-38.072823
2140.625000	-38.038750
2156.250000	-37.996883
2171.875000	-37.697865
2187.500000	-37.348862
2203.125000	-36.794788
2218.750000	-36.157814
2234.375000	-35.414482
2250.000000	-34.673634
2265.625000	-34.182976
2281.250000	-33.515911
2296.875000	-33.474560
2312.500000	-33.668732
2328.125000	-34.180328
2343.750000	-35.013287
2359.375000	-35.560905
2375.000000	-36.296822
2390.625000	-37.174637
2406.250000	-37.642349
2421.875000	-38.030941
2437.500000	-38.200886
2453.125000	-37.806805
2468.750000	-37.857380
2484.375000	-37.797852
2500.000000	-37.230709
2515.625000	-36.372829
2531.250000	-35.412949
2546.875000	-34.596985
2562.500000	-33.653374
2578.125000	-32.891056
2593.750000	-32.183987
2609.375000	-32.329967
2625.000000	-32.662651
2640.625000	-33.584484
2656.250000	-34.761436
2671.875000	-35.900425
2687.500000	-36.633793
2703.125000	-37.221813
2718.750000	-37.775955
2734.375000	-37.765816
2750.000000	-37.858631
2765.625000	-37.880795
2781.250000	-37.341507
2796.875000	-36.699699
2812.500000	-35.683849
2828.125000	-34.374043
2843.750000	-32.838230
2859.375000	-31.333542
2875.000000	-30.228119
2890.625000	-29.811535
2906.250000	-30.711306
2921.875000	-32.202057
2937.500000	-33.755112
2953.125000	-35.091236
2968.750000	-36.385921
2984.375000	-37.047199
3000.000000	-37.455383
3015.625000	-37.871929
3031.250000	-37.847721
3046.875000	-37.610821
3062.500000	-37.197098
3078.125000	-36.481205
3093.750000	-35.244057
3109.375000	-33.694080
3125.000000	-31.903502
3140.625000	-29.705988
3156.250000	-28.314556
3171.875000	-28.228674
3187.500000	-29.244703
3203.125000	-31.273464
3218.750000	-32.918331
3234.375000	-34.282959
3250.000000	-35.827911
3265.625000	-36.494354
3281.250000	-36.930199
3296.875000	-37.498581
3312.500000	-37.296829
3328.125000	-37.049145
3343.750000	-36.624275
3359.375000	-36.084740
3375.000000	-34.849228
3390.625000	-33.134995
3406.250000	-31.287786
3421.875000	-28.990114
3437.500000	-27.052979
3453.125000	-26.338102
3468.750000	-27.644329
3484.375000	-30.124998
3500.000000	-32.233292
3515.625000	-33.779030
3531.250000	-34.831333
3546.875000	-35.739861
3562.500000	-36.242279
3578.125000	-36.264732
3593.750000	-36.467453
3609.375000	-36.352837
3625.000000	-35.809616
3640.625000	-34.965797
3656.250000	-34.049171
3671.875000	-32.540096
3687.500000	-30.453764
3703.125000	-28.238520
3718.750000	-26.356459
3734.375000	-25.935181
3750.000000	-27.162674
3765.625000	-29.225418
3781.250000	-31.200729
3796.875000	-32.604237
3812.500000	-33.646633
3828.125000	-34.859718
3843.750000	-35.793922
3859.375000	-36.380173
3875.000000	-36.230534
3890.625000	-36.101982
3906.250000	-35.626400
3921.875000	-34.923683
3937.500000	-33.972900
3953.125000	-32.766045
3968.750000	-31.003805
3984.375000	-29.097418
4000.000000	-27.271521
4015.625000	-26.437113
4031.250000	-26.999668
4046.875000	-28.799948
4062.500000	-31.018013
4078.125000	-32.986198
4093.750000	-34.537682
4109.375000	-35.464851
4125.000000	-36.372089
4140.625000	-36.886246
4156.250000	-37.159779
4171.875000	-37.246464
4187.500000	-37.113186
4203.125000	-36.763302
4218.750000	-36.082962
4234.375000	-34.900833
4250.000000	-33.469318
4265.625000	-31.851021
4281.250000	-30.084038
4296.875000	-28.306995
4312.500000	-28.297323
4328.125000	-30.028568
4343.750000	-32.265686
4359.375000	-34.532925
4375.000000	-36.236313
4390.625000	-37.585468
4406.250000	-38.523964
4421.875000	-39.166981
4437.500000	-39.643574
4453.125000	-40.320564
4468.750000	-40.042118
4484.375000	-39.579781
4500.000000	-38.903927
4515.625000	-38.210758
4531.250000	-36.843056
4546.875000	-35.014008
4562.500000	-32.972660
4578.125000	-31.382292
4593.750000	-30.948816
4609.375000	-32.027180
4625.000000	-34.441048
4640.625000	-36.744633
4656.250000	-38.697193
4671.875000	-39.969002
4687.500000	-41.162971
4703.125000	-42.109131
4718.750000	-42.391369
4734.375000	-42.718170
4750.000000	-42.786835
4765.625000	-42.572853
4781.250000	-41.848049
4796.875000	-40.965260
4812.500000	-40.016308
4828.125000	-38.368477
4843.750000	-36.062870
4859.375000	-33.868050
4875.000000	-32.794937
4890.625000	-33.931408
4906.250000	-36.768471
4921.875000	-39.332653
4937.500000	-41.237278
4953.125000	-42.878998
4968.750000	-43.987129
4984.375000	-44.659641
5000.000000	-45.210281
5015.625000	-45.616074
5031.250000	-45.453217
5046.875000	-45.188248
5062.500000	-44.831387
5078.125000	-44.074825
5093.750000	-42.855743
5109.375000	-41.049545
5125.000000	-38.972015
5140.625000	-36.301807
5156.250000	-35.087124
5171.875000	-36.101200
5187.500000	-38.508854
5203.125000	-41.099983
5218.750000	-43.146179
5234.375000	-44.834961
5250.000000	-45.929634
5265.625000	-46.865795
5281.250000	-47.568462
5296.875000	-47.817600
5312.500000	-47.906300
5328.125000	-47.645954
5343.750000	-47.196331
5359.375000	-46.597240
5375.000000	-45.441875
5390.625000	-43.677021
5406.250000	-41.438690
5421.875000	-38.766289
5437.500000	-37.223152
5453.125000	-38.182953
5468.750000	-40.692204
5484.375000	-43.236332
5500.000000	-45.096687
5515.625000	-46.508846
5531.250000	-48.064659
5546.875000	-49.039413
5562.500000	-49.724171
5578.125000	-49.875980
5593.750000	-49.818745
5609.375000	-49.589336
5625.000000	-49.268501
5640.625000	-48.527489
5656.250000	-47.367046
5671.875000	-45.836063
5687.500000	-43.977535
5703.125000	-41.547848
5718.750000	-40.078934
5734.375000	-40.384266
5750.000000	-42.066788
5765.625000	-44.644947
5781.250000	-46.653236
5796.875000	-48.493313
5812.500000	-49.898937
5828.125000	-50.806591
5843.750000	-51.169758
5859.375000	-51.487217
5875.000000	-51.584152
5890.625000	-51.401299
5906.250000	-51.124920
5921.875000	-50.520786
5937.500000	-49.578125
5953.125000	-48.267258
5968.750000	-46.472492
5984.375000	-44.469803
6000.000000	-43.093426
6015.625000	-43.339191
6031.250000	-44.946396
6046.875000	-46.875484
6062.500000	-48.669842
6078.125000	-50.315266
6093.750000	-51.465389
6109.375000	-52.334389
6125.000000	-53.137154
6140.625000	-53.331532
6156.250000	-53.610962
6171.875000	-53.578461
6187.500000	-53.229053
6203.125000	-52.579403
6218.750000	-51.970596
6234.375000	-51.105602
6250.000000	-49.730148
6265.625000	-48.367161
6281.250000	-47.242180
6296.875000	-47.052658
6312.500000	-47.896397
6328.125000	-49.383774
6343.750000	-50.949196
6359.375000	-52.346535
6375.000000	-53.377972
6390.625000	-54.535946
6406.250000	-55.344284
6421.875000	-55.941025
6437.500000	-56.387638
6453.125000	-56.684055
6468.750000	-56.474533
6484.375000	-56.173717
6500.000000	-55.566868
6515.625000	-54.986382
6531.250000	-54.204964
6546.875000	-53.038986
6562.500000	-51.977879
6578.125000	-51.095871
6593.750000	-50.812931
6609.375000	-51.725998
6625.000000	-53.085876
6640.625000	-54.554977
6656.250000	-56.106369
6671.875000	-57.363514
6687.500000	-58.553699
6703.125000	-59.556622
6718.750000	-60.353363
6734.375000	-60.865677
6750.000000	-61.156544
6765.625000	-60.951065
6781.250000	-60.908451
6796.875000	-60.373177
6812.500000	-59.828651
6828.125000	-58.934029
6843.750000	-57.867558
6859.375000	-56.724880
6875.000000	-55.886669
6890.625000	-55.961575
6906.250000	-57.031502
6921.875000	-58.893269
6937.500000	-61.073952
6953.125000	-62.915485
6968.750000	-64.373596
6984.375000	-65.756203
7000.000000	-66.869156
7015.625000	-67.450882
7031.250000	-68.059052
7046.875000	-68.129181
7062.500000	-68.070793
7078.125000	-68.157631
7093.750000	-67.441788
7109.375000	-66.890617
7125.000000	-65.803291
7140.625000	-64.407120
7156.250000	-63.525112
7171.875000	-63.205791
7187.500000	-64.372490
7203.125000	-66.833534
7218.750000	-69.317169
7234.375000	-71.408714
7250.000000	-73.227272
7265.625000	-74.249123
7281.250000	-75.651482
7296.875000	-76.662971
7312.500000	-77.271347
7328.125000	-77.888016
7343.750000	-78.226700
7359.375000	-77.991600
7375.000000	-77.723083
7390.625000	-77.134468
7406.250000	-76.076820
7421.875000	-74.922722
7437.500000	-73.536224
7453.125000	-72.993828
7468.750000	-73.764008
7484.375000	-75.954720
7500.000000	-78.094551
7515.625000	-80.123322
7531.250000	-81.862923
7546.875000	-83.194267
7562.500000	-84.375694
7578.125000	-85.114288
7593.750000	-86.053070
7609.375000	-86.959435
7625.000000	-87.925034
7640.625000	-88.539726
7656.250000	-89.106674
7671.875000	-89.734993
7687.500000	-90.253548
7703.125000	-90.462212
7718.750000	-90.979317
7734.375000	-91.995956
7750.000000	-94.534668
7765.625000	-98.990685
7781.250000	-104.236397
7796.875000	-109.741020
7812.500000	-115.424149
7828.125000	-120.838829
7843.750000	-126.588974
7859.375000	-132.915482
7875.000000	-139.152069
7890.625000	-145.512619
7906.250000	-151.849365
7921.875000	-156.521240
7937.500000	-158.868011
7953.125000	-159.591309
7968.750000	-159.953979
7984.375000	-160.082260
