Frequency (Hz)	Level (dB)
15.625000	-77.682838
31.250000	-74.933731
46.875000	-72.318474
62.500000	-70.406601
78.125000	-69.602859
93.750000	-69.762764
109.375000	-67.870796
125.000000	-67.275452
140.625000	-74.504326
156.250000	-76.582993
171.875000	-76.333931
187.500000	-75.621254
203.125000	-74.369835
218.750000	-71.756859
234.375000	-67.862617
250.000000	-65.054886
265.625000	-62.038086
281.250000	-61.820492
296.875000	-64.984505
312.500000	-68.467300
328.125000	-70.810410
343.750000	-72.360695
359.375000	-73.590172
375.000000	-74.313042
390.625000	-74.520126
406.250000	-74.817703
421.875000	-74.840775
437.500000	-74.276062
453.125000	-73.344620
468.750000	-72.563454
484.375000	-71.647911
500.000000	-70.282120
515.625000	-68.651787
531.250000	-66.288628
546.875000	-63.734413
562.500000	-61.968899
578.125000	-62.960793
593.750000	-65.753685
609.375000	-68.042305
625.000000	-69.496552
640.625000	-70.167686
656.250000	-70.927811
671.875000	-71.458412
687.500000	-71.670746
703.125000	-71.722145
718.750000	-71.461784
734.375000	-70.664680
750.000000	-69.311195
765.625000	-67.974419
781.250000	-65.956718
796.875000	-64.078781
812.500000	-62.705334
828.125000	-62.213493
843.750000	-62.454639
859.375000	-62.852787
875.000000	-63.547096
890.625000	-65.216522
906.250000	-66.679176
921.875000	-67.880554
937.500000	-68.603661
953.125000	-68.865891
968.750000	-69.347618
984.375000	-69.074989
1000.000000	-68.599304
1015.625000	-67.855042
1031.250000	-67.244720
1046.875000	-66.741348
1062.500000	-65.905655
1078.125000	-65.109695
1093.750000	-64.241631
1109.375000	-63.965561
1125.000000	-63.872612
1140.625000	-63.919926
1156.250000	-63.823269
1171.875000	-63.818085
1187.500000	-64.155060
1203.125000	-64.857719
1218.750000	-65.366516
1234.375000	-65.413734
1250.000000	-65.316383
1265.625000	-65.460655
1281.250000	-65.457474
1296.875000	-65.422707
1312.500000	-65.045891
1328.125000	-64.460419
1343.750000	-63.833817
1359.375000	-63.099308
1375.000000	-61.679928
1390.625000	-59.765717
1406.250000	-57.511066
1421.875000	-54.465660
1437.500000	-51.989674
1453.125000	-51.807697
1468.750000	-53.809792
1484.375000	-56.476612
1500.000000	-58.422039
1515.625000	-59.887238
1531.250000	-60.869251
1546.875000	-61.269054
1562.500000	-61.384769
1578.125000	-61.368328
1593.750000	-60.863796
1609.375000	-60.406277
1625.000000	-59.035625
1640.625000	-57.756935
1656.250000	-56.163975
1671.875000	-53.932831
1687.500000	-51.489342
1703.125000	-49.948723
1718.750000	-50.241367
1734.375000	-51.845116
1750.000000	-54.176018
1765.625000	-56.219582
1781.250000	-57.124245
1796.875000	-57.931168
1812.500000	-58.690434
1828.125000	-59.022217
1843.750000	-59.009212
1859.375000	-58.987576
1875.000000	-58.374775
1890.625000	-57.602184
1906.250000	-56.816467
1921.875000	-55.824074
1937.500000	-54.444206
1953.125000	-53.200188
1968.750000	-52.279903
1984.375000	-51.525288
2000.000000	-51.752586
2015.625000	-52.852600
2031.250000	-53.881588
2046.875000	-54.878685
2062.500000	-56.015717
2078.125000	-57.078384
2093.750000	-57.667076
2109.375000	-57.923878
2125.000000	-57.953522
2140.625000	-58.038998
2156.250000	-57.880386
2171.875000	-57.660698
2187.500000	-57.171917
2203.125000	-56.570095
2218.750000	-55.820164
2234.375000	-55.190632
2250.000000	-54.419365
2265.625000	-53.771622
2281.250000	-53.452175
2296.875000	-53.308727
2312.500000	-53.426849
2328.125000	-53.698006
2343.750000	-54.440361
2359.375000	-55.342571
2375.000000	-56.204189
2390.625000	-56.933887
2406.250000	-57.194901
2421.875000	-57.388012
2437.500000	-57.633411
2453.125000	-57.903233
2468.750000	-57.799526
2484.375000	-57.483299
2500.000000	-57.028358
2515.625000	-56.324947
2531.250000	-55.273163
2546.875000	-54.783249
2562.500000	-53.760220
2578.125000	-52.859966
2593.750000	-52.309483
2609.375000	-52.332043
2625.000000	-53.034775
2640.625000	-53.899330
2656.250000	-54.785297
2671.875000	-55.696369
2687.500000	-56.592117
2703.125000	-57.282520
2718.750000	-57.759167
2734.375000	-57.902245
2750.000000	-57.833221
2765.625000	-57.609470
2781.250000	-57.252800
2796.875000	-56.804634
2812.500000	-55.797253
2828.125000	-54.439888
2843.750000	-53.046471
2859.375000	-51.353333
2875.000000	-50.145248
2890.625000	-50.114529
2906.250000	-50.843754
2921.875000	-51.963219
2937.500000	-53.314106
2953.125000	-54.735538
2968.750000	-55.694752
2984.375000	-56.797874
3000.000000	-57.161034
3015.625000	-57.477055
3031.250000	-57.641232
3046.875000	-57.617332
3062.500000	-57.264576
3078.125000	-56.399391
3093.750000	-55.229496
3109.375000	-53.946106
3125.000000	-51.796391
3140.625000	-49.653088
3156.250000	-48.275379
3171.875000	-48.189945
3187.500000	-49.214169
3203.125000	-51.095627
3218.750000	-52.986469
3234.375000	-54.551563
3250.000000	-55.579964
3265.625000	-56.314514
3281.250000	-56.766212
3296.875000	-57.191093
3312.500000	-57.382305
3328.125000	-57.172516
3343.750000	-56.345512
3359.375000	-55.762035
3375.000000	-54.639175
3390.625000	-53.029755
3406.250000	-51.165585
3421.875000	-49.016293
3437.500000	-47.055691
3453.125000	-46.258461
3468.750000	-47.675831
3484.375000	-49.950451
3500.000000	-51.905056
3515.625000	-53.579594
3531.250000	-54.738995
3546.875000	-55.726849
3562.500000	-56.246590
3578.125000	-56.610516
3593.750000	-56.477642
3609.375000	-55.949112
3625.000000	-55.806255
3640.625000	-54.917858
3656.250000	-54.001160
3671.875000	-52.494709
3687.500000	-50.819893
3703.125000	-48.583080
3718.750000	-46.375618
3734.375000	-45.532715
3750.000000	-46.570522
3765.625000	-48.901627
3781.250000	-50.942635
3796.875000	-52.640316
3812.500000	-53.672264
3828.125000	-54.792915
3843.750000	-55.639748
3859.375000	-55.965134
3875.000000	-56.219772
3890.625000	-55.887558
3906.250000	-55.468773
3921.875000	-54.915009
3937.500000	-54.136044
3953.125000	-52.911224
3968.750000	-51.281197
3984.375000	-49.264668
4000.000000	-47.495037
4015.625000	-46.474487
4031.250000	-46.848206
4046.875000	-48.659981
4062.500000	-50.733597
4078.125000	-52.751881
4093.750000	-54.038548
4109.375000	-55.159847
4125.000000	-55.973454
4140.625000	-56.400383
4156.250000	-56.853027
4171.875000	-57.107803
4187.500000	-56.956661
4203.125000	-56.521194
4218.750000	-55.993004
4234.375000	-55.077274
4250.000000	-53.627735
4265.625000	-51.958927
4281.250000	-50.059330
4296.875000	-48.650665
4312.500000	-48.288971
4328.125000	-49.492790
4343.750000	-51.993919
4359.375000	-53.961800
4375.000000	-55.631481
4390.625000	-57.028561
4406.250000	-57.973965
4421.875000	-58.779804
4437.500000	-59.364040
4453.125000	-59.862743
4468.750000	-60.058609
4484.375000	-59.749500
4500.000000	-58.982483
4515.625000	-58.043041
4531.250000	-57.157654
4546.875000	-55.456451
4562.500000	-53.401009
4578.125000	-51.347488
4593.750000	-50.485958
4609.375000	-51.730206
4625.000000	-53.967587
4640.625000	-56.344223
4656.250000	-58.228420
4671.875000	-59.836769
4687.500000	-60.927967
4703.125000	-61.988750
4718.750000	-62.384075
4734.375000	-62.709961
4750.000000	-62.703682
4765.625000	-62.484169
4781.250000	-62.029289
4796.875000	-61.190716
4812.500000	-59.991188
4828.125000	-58.472065
4843.750000	-55.892284
4859.375000	-53.833874
4875.000000	-52.869583
4890.625000	-53.791256
4906.250000	-56.231682
4921.875000	-58.696693
4937.500000	-60.726887
4953.125000	-62.506947
4968.750000	-63.584011
4984.375000	-64.525742
5000.000000	-65.169167
5015.625000	-65.337303
5031.250000	-65.362206
5046.875000	-64.998337
5062.500000	-64.638748
5078.125000	-64.015167
5093.750000	-62.807533
5109.375000	-61.046535
5125.000000	-58.894253
5140.625000	-56.531910
5156.250000	-55.220779
5171.875000	-55.778561
5187.500000	-57.811855
5203.125000	-60.836308
5218.750000	-63.068951
5234.375000	-64.505928
5250.000000	-65.981163
5265.625000	-66.728683
5281.250000	-67.337921
5296.875000	-67.395744
5312.500000	-67.601624
5328.125000	-67.638504
5343.750000	-67.123222
5359.375000	-66.113953
5375.000000	-65.023384
5390.625000	-63.635986
5406.250000	-61.563457
5421.875000	-58.904884
5437.500000	-57.041927
5453.125000	-57.616619
5468.750000	-59.969032
5484.375000	-62.472782
5500.000000	-64.953491
5515.625000	-66.388405
5531.250000	-67.699707
5546.875000	-68.934387
5562.500000	-69.473969
5578.125000	-69.638901
5593.750000	-69.729378
5609.375000	-69.591805
5625.000000	-69.133362
5640.625000	-68.088020
5656.250000	-67.129173
5671.875000	-65.852753
5687.500000	-63.855484
5703.125000	-61.748352
5718.750000	-60.205936
5734.375000	-60.387691
5750.000000	-62.017811
5765.625000	-64.426529
5781.250000	-66.450623
5796.875000	-68.194046
5812.500000	-69.559357
5828.125000	-70.640892
5843.750000	-70.997849
5859.375000	-71.403381
5875.000000	-71.598175
5890.625000	-71.323517
5906.250000	-70.948570
5921.875000	-70.322113
5937.500000	-69.416023
5953.125000	-68.050957
5968.750000	-66.345848
5984.375000	-64.705849
6000.000000	-63.229904
6015.625000	-63.186508
6031.250000	-64.516678
6046.875000	-66.408966
6062.500000	-68.470200
6078.125000	-69.825119
6093.750000	-71.243805
6109.375000	-72.083443
6125.000000	-72.903908
6140.625000	-73.373207
6156.250000	-73.501724
6171.875000	-73.373093
6187.500000	-73.081177
6203.125000	-72.786621
6218.750000	-71.956535
6234.375000	-71.224953
6250.000000	-70.032021
6265.625000	-68.659431
6281.250000	-67.422073
6296.875000	-67.084274
6312.500000	-67.914940
6328.125000	-68.986946
6343.750000	-70.195114
6359.375000	-71.930412
6375.000000	-73.347343
6390.625000	-74.427650
6406.250000	-75.037865
6421.875000	-75.609711
6437.500000	-76.124710
6453.125000	-76.434753
6468.750000	-76.544746
6484.375000	-76.224129
6500.000000	-75.854225
6515.625000	-75.150139
6531.250000	-74.143250
6546.875000	-73.162727
6562.500000	-72.490776
6578.125000	-71.599503
6593.750000	-71.438934
6609.375000	-71.902039
6625.000000	-73.115059
6640.625000	-74.280754
6656.250000	-75.794815
6671.875000	-77.139496
6687.500000	-78.245934
6703.125000	-79.291664
6718.750000	-79.986900
6734.375000	-80.111877
6750.000000	-80.564720
6765.625000	-80.875687
6781.250000	-80.469833
6796.875000	-80.192612
6812.500000	-79.846481
6828.125000	-79.009819
6843.750000	-77.900177
6859.375000	-76.826347
6875.000000	-76.020699
6890.625000	-75.963737
6906.250000	-77.115379
6921.875000	-79.236519
6937.500000	-81.233543
6953.125000	-82.849937
6968.750000	-84.344894
6984.375000	-85.448112
7000.000000	-86.617233
7015.625000	-87.147972
7031.250000	-87.498260
7046.875000	-87.904137
7062.500000	-87.864540
7078.125000	-87.743088
7093.750000	-87.396820
7109.375000	-86.801247
7125.000000	-85.923111
7140.625000	-85.007767
7156.250000	-84.143257
7171.875000	-83.778587
7187.500000	-84.889076
7203.125000	-86.904060
7218.750000	-88.931465
7234.375000	-90.626823
7250.000000	-91.784187
7265.625000	-92.607697
7281.250000	-93.204659
7296.875000	-93.495270
7312.500000	-93.766258
7328.125000	-93.704224
7343.750000	-93.967674
7359.375000	-93.906342
7375.000000	-94.134186
7390.625000	-94.182487
7406.250000	-94.056427
7421.875000	-93.827690
7437.500000	-93.182922
7453.125000	-93.125877
7468.750000	-93.789963
7484.375000	-94.495216
7500.000000	-95.039276
7515.625000	-95.412354
7531.250000	-95.650520
7546.875000	-95.959839
7562.500000	-96.243561
7578.125000	-97.115089
7593.750000	-97.858696
7609.375000	-98.639656
7625.000000	-99.323608
7640.625000	-100.476799
7656.250000	-101.907555
7671.875000	-103.541069
7687.500000	-105.367874
7703.125000	-107.451057
7718.750000	-109.659805
7734.375000	-112.221085
7750.000000	-114.829208
7765.625000	-117.860657
7781.250000	-121.414337
7796.875000	-125.197098
7812.500000	-129.053223
7828.125000	-133.520676
7843.750000	-138.493820
7859.375000	-143.786224
7875.000000	-149.815399
7890.625000	-156.455475
7906.250000	-163.377380
7921.875000	-170.274353
7937.500000	-175.540451
7953.125000	-177.379883
7968.750000	-178.069595
7984.375000	-178.239487
