Frequency (Hz)	Level (dB)
15.625000	-70.442848
31.250000	-67.387932
46.875000	-65.668167
62.500000	-64.685936
78.125000	-64.235115
93.750000	-64.340065
109.375000	-63.281235
125.000000	-63.152660
140.625000	-65.646278
156.250000	-65.587730
171.875000	-65.113403
187.500000	-64.283440
203.125000	-63.109085
218.750000	-61.154823
234.375000	-58.319386
250.000000	-54.568932
265.625000	-51.321682
281.250000	-51.327297
296.875000	-54.738148
312.500000	-58.505222
328.125000	-61.079098
343.750000	-63.080292
359.375000	-64.490463
375.000000	-65.233490
390.625000	-65.831352
406.250000	-66.135300
421.875000	-66.044777
437.500000	-65.454399
453.125000	-64.864578
468.750000	-64.140114
484.375000	-63.451805
500.000000	-62.142838
515.625000	-60.386677
531.250000	-57.924892
546.875000	-55.348042
562.500000	-54.144260
578.125000	-55.357170
593.750000	-58.246620
609.375000	-60.662457
625.000000	-62.138298
640.625000	-63.037258
656.250000	-63.978729
671.875000	-64.880356
687.500000	-65.031029
703.125000	-65.109207
718.750000	-64.947289
734.375000	-64.077232
750.000000	-63.115353
765.625000	-61.722168
781.250000	-59.912094
796.875000	-57.889175
812.500000	-56.544853
828.125000	-56.286850
843.750000	-56.548603
859.375000	-56.856133
875.000000	-57.831585
890.625000	-59.506989
906.250000	-61.108398
921.875000	-62.451954
937.500000	-63.284958
953.125000	-63.685394
968.750000	-64.023262
984.375000	-63.852276
1000.000000	-63.679100
1015.625000	-62.941410
1031.250000	-62.401909
1046.875000	-61.670078
1062.500000	-60.871319
1078.125000	-60.026863
1093.750000	-59.172127
1109.375000	-58.800861
1125.000000	-59.191490
1140.625000	-59.361897
1156.250000	-58.961700
1171.875000	-58.958263
1187.500000	-59.513298
1203.125000	-60.275017
1218.750000	-60.594284
1234.375000	-60.881748
1250.000000	-61.060173
1265.625000	-61.088001
1281.250000	-61.037155
1296.875000	-60.831924
1312.500000	-60.573574
1328.125000	-60.559372
1343.750000	-60.010113
1359.375000	-59.036602
1375.000000	-57.736950
1390.625000	-56.048817
1406.250000	-53.659462
1421.875000	-50.741795
1437.500000	-48.491180
1453.125000	-48.452545
1468.750000	-50.347374
1484.375000	-52.839729
1500.000000	-54.786491
1515.625000	-56.319519
1531.250000	-57.391907
1546.875000	-57.997910
1562.500000	-58.053711
1578.125000	-57.946354
1593.750000	-57.662266
1609.375000	-57.111015
1625.000000	-56.117294
1640.625000	-54.764164
1656.250000	-52.868767
1671.875000	-50.550167
1687.500000	-48.187183
1703.125000	-46.714668
1718.750000	-47.195793
1734.375000	-49.112972
1750.000000	-51.141720
1765.625000	-52.986385
1781.250000	-54.450993
1796.875000	-55.458256
1812.500000	-56.105297
1828.125000	-56.253468
1843.750000	-56.371902
1859.375000	-56.454403
1875.000000	-56.151138
1890.625000	-55.294540
1906.250000	-54.447483
1921.875000	-53.467915
1937.500000	-51.996944
1953.125000	-50.493813
1968.750000	-49.475735
1984.375000	-49.133228
2000.000000	-49.508537
2015.625000	-50.436787
2031.250000	-51.925903
2046.875000	-53.055656
2062.500000	-54.147449
2078.125000	-55.059017
2093.750000	-55.612431
2109.375000	-55.986862
2125.000000	-56.074814
2140.625000	-56.163418
2156.250000	-56.019146
2171.875000	-55.863438
2187.500000	-55.309101
2203.125000	-54.891819
2218.750000	-54.355083
2234.375000	-53.412354
2250.000000	-52.733536
2265.625000	-52.179646
2281.250000	-51.714466
2296.875000	-51.497311
2312.500000	-51.672340
2328.125000	-52.431740
2343.750000	-53.370754
2359.375000	-54.214279
2375.000000	-54.792130
2390.625000	-55.363045
2406.250000	-55.839184
2421.875000	-56.286961
2437.500000	-56.415390
2453.125000	-56.460594
2468.750000	-56.233349
2484.375000	-56.139446
2500.000000	-55.621124
2515.625000	-55.140175
2531.250000	-54.361656
2546.875000	-53.492851
2562.500000	-52.242989
2578.125000	-51.143459
2593.750000	-50.909519
2609.375000	-51.281223
2625.000000	-52.039215
2640.625000	-52.824638
2656.250000	-53.959934
2671.875000	-54.625847
2687.500000	-55.581959
2703.125000	-56.352695
2718.750000	-56.821239
2734.375000	-56.971481
2750.000000	-57.039089
2765.625000	-56.820599
2781.250000	-56.227989
2796.875000	-55.775398
2812.500000	-54.807194
2828.125000	-53.695396
2843.750000	-52.119808
2859.375000	-50.407547
2875.000000	-49.313763
2890.625000	-49.129131
2906.250000	-49.981377
2921.875000	-51.405117
2937.500000	-53.045300
2953.125000	-54.545856
2968.750000	-55.584454
2984.375000	-56.367718
3000.000000	-56.537537
3015.625000	-56.979786
3031.250000	-57.250511
3046.875000	-56.918816
3062.500000	-56.611000
3078.125000	-55.890305
3093.750000	-54.811504
3109.375000	-53.234299
3125.000000	-51.329601
3140.625000	-49.716469
3156.250000	-48.094028
3171.875000	-47.726353
3187.500000	-48.797249
3203.125000	-50.675510
3218.750000	-53.002026
3234.375000	-54.616676
3250.000000	-55.578987
3265.625000	-56.319824
3281.250000	-56.792179
3296.875000	-56.953632
3312.500000	-56.926373
3328.125000	-56.907017
3343.750000	-56.534019
3359.375000	-55.638592
3375.000000	-54.497440
3390.625000	-52.852283
3406.250000	-51.023697
3421.875000	-48.759594
3437.500000	-46.873306
3453.125000	-46.608284
3468.750000	-48.024700
3484.375000	-50.234951
3500.000000	-52.230049
3515.625000	-53.730583
3531.250000	-55.133739
3546.875000	-56.121323
3562.500000	-56.521641
3578.125000	-56.594231
3593.750000	-56.528309
3609.375000	-56.273487
3625.000000	-55.852695
3640.625000	-55.107040
3656.250000	-54.150497
3671.875000	-52.885483
3687.500000	-50.913723
3703.125000	-48.525772
3718.750000	-46.589130
3734.375000	-45.945061
3750.000000	-47.422546
3765.625000	-49.548580
3781.250000	-51.630917
3796.875000	-53.207661
3812.500000	-54.453388
3828.125000	-55.397137
3843.750000	-56.074898
3859.375000	-56.325245
3875.000000	-56.326057
3890.625000	-56.238720
3906.250000	-55.938248
3921.875000	-55.525723
3937.500000	-54.831772
3953.125000	-53.172459
3968.750000	-51.669144
3984.375000	-50.105701
4000.000000	-48.044891
4015.625000	-47.011036
4031.250000	-47.616074
4046.875000	-49.595482
4062.500000	-51.663010
4078.125000	-53.399094
4093.750000	-55.084156
4109.375000	-56.456814
4125.000000	-57.027393
4140.625000	-57.465759
4156.250000	-57.884884
4171.875000	-57.955627
4187.500000	-57.633614
4203.125000	-57.238724
4218.750000	-56.438255
4234.375000	-55.651257
4250.000000	-54.391876
4265.625000	-52.802456
4281.250000	-50.986202
4296.875000	-49.709244
4312.500000	-49.698006
4328.125000	-51.194748
4343.750000	-53.550278
4359.375000	-55.634571
4375.000000	-57.368298
4390.625000	-58.508568
4406.250000	-59.285316
4421.875000	-60.200405
4437.500000	-61.144993
4453.125000	-61.318222
4468.750000	-61.279213
4484.375000	-60.785213
4500.000000	-60.021633
4515.625000	-59.035778
4531.250000	-57.804993
4546.875000	-56.175362
4562.500000	-54.087029
4578.125000	-52.501408
4593.750000	-52.215328
4609.375000	-53.626118
4625.000000	-55.878521
4640.625000	-58.185402
4656.250000	-59.879841
4671.875000	-61.420658
4687.500000	-62.867363
4703.125000	-63.405716
4718.750000	-63.721691
4734.375000	-64.054924
4750.000000	-64.278946
4765.625000	-64.066986
4781.250000	-63.358574
4796.875000	-62.497082
4812.500000	-61.454090
4828.125000	-59.565613
4843.750000	-57.353214
4859.375000	-55.106861
4875.000000	-54.205246
4890.625000	-55.466442
4906.250000	-58.155193
4921.875000	-60.893932
4937.500000	-62.836887
4953.125000	-64.408493
4968.750000	-65.260651
4984.375000	-66.117332
5000.000000	-66.870544
5015.625000	-67.135803
5031.250000	-67.112732
5046.875000	-66.772377
5062.500000	-66.168541
5078.125000	-65.562454
5093.750000	-64.240891
5109.375000	-62.573124
5125.000000	-60.205513
5140.625000	-57.798515
5156.250000	-56.846718
5171.875000	-57.942970
5187.500000	-60.427296
5203.125000	-62.790802
5218.750000	-65.014984
5234.375000	-66.636597
5250.000000	-68.011810
5265.625000	-68.642189
5281.250000	-69.192558
5296.875000	-69.892525
5312.500000	-69.862930
5328.125000	-69.609383
5343.750000	-68.803993
5359.375000	-68.144470
5375.000000	-66.995476
5390.625000	-65.323662
5406.250000	-63.016747
5421.875000	-60.396648
5437.500000	-58.971199
5453.125000	-60.038811
5468.750000	-62.712475
5484.375000	-65.301300
5500.000000	-67.564537
5515.625000	-69.180779
5531.250000	-70.331207
5546.875000	-71.014709
5562.500000	-71.355354
5578.125000	-71.644676
5593.750000	-72.046509
5609.375000	-71.756012
5625.000000	-71.216843
5640.625000	-70.506416
5656.250000	-69.271812
5671.875000	-67.721710
5687.500000	-66.025948
5703.125000	-63.933479
5718.750000	-62.503403
5734.375000	-62.824944
5750.000000	-64.615273
5765.625000	-67.080696
5781.250000	-69.108536
5796.875000	-70.729172
5812.500000	-72.055824
5828.125000	-72.731026
5843.750000	-73.521225
5859.375000	-74.009384
5875.000000	-74.202126
5890.625000	-74.050491
5906.250000	-73.343567
5921.875000	-72.528061
5937.500000	-71.675148
5953.125000	-70.181305
5968.750000	-68.434334
5984.375000	-66.682404
6000.000000	-65.625320
6015.625000	-66.022621
6031.250000	-67.569031
6046.875000	-69.410385
6062.500000	-71.356308
6078.125000	-73.147346
6093.750000	-74.332573
6109.375000	-74.923912
6125.000000	-75.581154
6140.625000	-76.121727
6156.250000	-76.365799
6171.875000	-76.285942
6187.500000	-75.846809
6203.125000	-75.133636
6218.750000	-74.345566
6234.375000	-73.678482
6250.000000	-72.543884
6265.625000	-71.203842
6281.250000	-70.261810
6296.875000	-69.944344
6312.500000	-70.421524
6328.125000	-71.883156
6343.750000	-73.512688
6359.375000	-75.004021
6375.000000	-76.224571
6390.625000	-77.381615
6406.250000	-77.976151
6421.875000	-78.473648
6437.500000	-78.799751
6453.125000	-79.176262
6468.750000	-79.081017
6484.375000	-78.719719
6500.000000	-78.349785
6515.625000	-77.763824
6531.250000	-76.872162
6546.875000	-75.835297
6562.500000	-74.559479
6578.125000	-73.751396
6593.750000	-73.882698
6609.375000	-74.677422
6625.000000	-76.265381
6640.625000	-77.668892
6656.250000	-78.915565
6671.875000	-80.252502
6687.500000	-81.305252
6703.125000	-82.063293
6718.750000	-82.543587
6734.375000	-83.164536
6750.000000	-83.488663
6765.625000	-83.429497
6781.250000	-83.290512
6796.875000	-83.002930
6812.500000	-82.643784
6828.125000	-81.672432
6843.750000	-80.375595
6859.375000	-79.170212
6875.000000	-78.425232
6890.625000	-78.786865
6906.250000	-80.329308
6921.875000	-82.472130
6937.500000	-84.284271
6953.125000	-85.873131
6968.750000	-87.514030
6984.375000	-88.259399
7000.000000	-88.985718
7015.625000	-89.497475
7031.250000	-89.804382
7046.875000	-90.244843
7062.500000	-90.383621
7078.125000	-90.099548
7093.750000	-89.737923
7109.375000	-89.343910
7125.000000	-88.302795
7140.625000	-87.299126
7156.250000	-86.828903
7171.875000	-86.774239
7187.500000	-87.826874
7203.125000	-89.545738
7218.750000	-91.298187
7234.375000	-92.518044
7250.000000	-93.360886
7265.625000	-93.669785
7281.250000	-93.997894
7296.875000	-94.345833
7312.500000	-94.365265
7328.125000	-94.325890
7343.750000	-94.351341
7359.375000	-94.533257
7375.000000	-94.401276
7390.625000	-94.512039
7406.250000	-94.515427
7421.875000	-94.237961
7437.500000	-93.986671
7453.125000	-94.083008
7468.750000	-94.496956
7484.375000	-94.867058
7500.000000	-95.213524
7515.625000	-95.602707
7531.250000	-95.948723
7546.875000	-96.200668
7562.500000	-96.535004
7578.125000	-96.914330
7593.750000	-97.717957
7609.375000	-98.516060
7625.000000	-99.589005
7640.625000	-100.786949
7656.250000	-102.191658
7671.875000	-103.574539
7687.500000	-105.275558
7703.125000	-107.239517
7718.750000	-109.556732
7734.375000	-112.081291
7750.000000	-114.611633
7765.625000	-117.730461
7781.250000	-121.292221
7796.875000	-125.012169
7812.500000	-129.161636
7828.125000	-133.456085
7843.750000	-138.272568
7859.375000	-143.777237
7875.000000	-149.572418
7890.625000	-156.170700
7906.250000	-163.327362
7921.875000	-170.773056
7937.500000	-176.467712
7953.125000	-178.591904
7968.750000	-179.446213
7984.375000	-179.771255
