Frequency (Hz)	Level (dB)
15.625000	-61.360966
31.250000	-56.038761
46.875000	-54.446541
62.500000	-54.461346
78.125000	-54.734322
93.750000	-55.359272
109.375000	-56.130459
125.000000	-56.543446
140.625000	-57.652348
156.250000	-58.027020
171.875000	-57.472046
187.500000	-57.105579
203.125000	-56.487759
218.750000	-54.837440
234.375000	-52.384705
250.000000	-48.584621
265.625000	-45.570862
281.250000	-45.971649
296.875000	-49.475735
312.500000	-53.343739
328.125000	-56.308735
343.750000	-58.375092
359.375000	-59.885151
375.000000	-60.785450
390.625000	-61.576164
406.250000	-62.201191
421.875000	-62.267612
437.500000	-62.090515
453.125000	-61.668396
468.750000	-60.968182
484.375000	-60.272831
500.000000	-59.048367
515.625000	-57.397694
531.250000	-54.976955
546.875000	-52.737595
562.500000	-51.654396
578.125000	-52.831520
593.750000	-55.709900
609.375000	-58.370327
625.000000	-59.821095
640.625000	-61.159634
656.250000	-62.189915
671.875000	-62.889652
687.500000	-63.224552
703.125000	-63.381577
718.750000	-63.232727
734.375000	-62.647675
750.000000	-61.854698
765.625000	-60.518314
781.250000	-58.511383
796.875000	-56.447838
812.500000	-55.375183
828.125000	-55.238209
843.750000	-55.485779
859.375000	-56.184929
875.000000	-57.326801
890.625000	-58.961136
906.250000	-60.499653
921.875000	-61.687878
937.500000	-62.767567
953.125000	-63.455639
968.750000	-63.729000
984.375000	-63.445110
1000.000000	-63.057465
1015.625000	-62.791534
1031.250000	-62.335060
1046.875000	-61.593567
1062.500000	-60.735176
1078.125000	-59.899685
1093.750000	-59.527504
1109.375000	-59.272121
1125.000000	-59.288425
1140.625000	-59.451706
1156.250000	-59.606285
1171.875000	-59.707817
1187.500000	-60.133934
1203.125000	-60.849991
1218.750000	-61.235584
1234.375000	-61.464073
1250.000000	-61.606972
1265.625000	-61.921608
1281.250000	-62.163483
1296.875000	-62.171040
1312.500000	-61.897736
1328.125000	-61.396633
1343.750000	-61.007938
1359.375000	-60.239723
1375.000000	-59.051235
1390.625000	-57.128464
1406.250000	-54.803852
1421.875000	-51.891281
1437.500000	-49.700405
1453.125000	-49.691643
1468.750000	-51.833561
1484.375000	-54.504143
1500.000000	-56.580547
1515.625000	-57.917019
1531.250000	-58.920647
1546.875000	-59.491879
1562.500000	-59.806725
1578.125000	-59.927265
1593.750000	-59.522266
1609.375000	-58.925747
1625.000000	-58.121849
1640.625000	-56.462769
1656.250000	-54.757038
1671.875000	-52.837795
1687.500000	-50.547009
1703.125000	-49.214149
1718.750000	-49.614399
1734.375000	-51.690849
1750.000000	-53.693813
1765.625000	-55.637833
1781.250000	-56.855564
1796.875000	-57.668732
1812.500000	-58.441856
1828.125000	-58.785568
1843.750000	-58.813469
1859.375000	-58.639404
1875.000000	-58.297050
1890.625000	-57.928848
1906.250000	-57.133995
1921.875000	-56.103039
1937.500000	-54.691017
1953.125000	-53.187702
1968.750000	-52.134289
1984.375000	-51.986530
2000.000000	-52.328548
2015.625000	-53.550449
2031.250000	-54.888741
2046.875000	-56.042038
2062.500000	-56.916344
2078.125000	-57.980267
2093.750000	-58.434483
2109.375000	-58.896439
2125.000000	-59.264107
2140.625000	-59.378033
2156.250000	-59.016331
2171.875000	-58.519188
2187.500000	-58.619621
2203.125000	-57.954613
2218.750000	-57.105602
2234.375000	-56.609295
2250.000000	-56.272850
2265.625000	-55.664162
2281.250000	-55.005333
2296.875000	-54.635456
2312.500000	-54.692123
2328.125000	-55.586769
2343.750000	-56.608902
2359.375000	-57.769009
2375.000000	-58.532608
2390.625000	-59.011841
2406.250000	-59.425484
2421.875000	-59.828148
2437.500000	-60.078362
2453.125000	-60.128452
2468.750000	-59.820728
2484.375000	-59.833393
2500.000000	-58.961075
2515.625000	-58.293697
2531.250000	-57.539997
2546.875000	-56.700348
2562.500000	-55.819595
2578.125000	-55.022266
2593.750000	-54.703789
2609.375000	-54.955906
2625.000000	-55.520180
2640.625000	-56.698719
2656.250000	-57.653057
2671.875000	-58.719421
2687.500000	-59.790237
2703.125000	-60.239456
2718.750000	-60.380196
2734.375000	-60.671452
2750.000000	-60.701511
2765.625000	-60.434216
2781.250000	-60.395466
2796.875000	-59.463440
2812.500000	-58.539486
2828.125000	-57.346127
2843.750000	-55.856937
2859.375000	-54.508244
2875.000000	-53.356804
2890.625000	-53.286865
2906.250000	-54.363926
2921.875000	-55.806610
2937.500000	-57.587856
2953.125000	-58.945606
2968.750000	-60.135849
2984.375000	-60.813610
3000.000000	-61.222702
3015.625000	-61.510826
3031.250000	-61.407578
3046.875000	-61.028816
3062.500000	-60.791992
3078.125000	-59.981213
3093.750000	-58.822254
3109.375000	-57.417027
3125.000000	-55.736687
3140.625000	-53.761963
3156.250000	-52.166801
3171.875000	-51.991055
3187.500000	-53.461319
3203.125000	-55.674786
3218.750000	-57.815826
3234.375000	-59.227448
3250.000000	-60.210220
3265.625000	-60.827694
3281.250000	-61.329403
3296.875000	-61.570721
3312.500000	-61.854816
3328.125000	-61.639091
3343.750000	-61.054848
3359.375000	-60.340313
3375.000000	-59.131237
3390.625000	-57.434647
3406.250000	-55.448727
3421.875000	-53.078163
3437.500000	-51.159668
3453.125000	-51.219154
3468.750000	-52.847504
3484.375000	-55.327717
3500.000000	-57.354836
3515.625000	-58.894402
3531.250000	-59.871105
3546.875000	-60.491978
3562.500000	-61.028545
3578.125000	-61.394165
3593.750000	-61.385567
3609.375000	-61.137924
3625.000000	-60.513874
3640.625000	-59.836346
3656.250000	-59.012554
3671.875000	-57.341579
3687.500000	-55.305988
3703.125000	-53.218349
3718.750000	-51.552078
3734.375000	-51.129383
3750.000000	-52.277184
3765.625000	-54.606693
3781.250000	-56.649479
3796.875000	-58.211170
3812.500000	-59.492424
3828.125000	-60.389221
3843.750000	-61.052582
3859.375000	-61.306686
3875.000000	-61.492531
3890.625000	-61.466042
3906.250000	-61.098129
3921.875000	-60.191395
3937.500000	-59.238831
3953.125000	-58.069054
3968.750000	-56.550613
3984.375000	-54.512489
4000.000000	-52.783688
4015.625000	-52.185535
4031.250000	-52.995346
4046.875000	-55.109200
4062.500000	-56.972893
4078.125000	-58.749859
4093.750000	-60.211563
4109.375000	-61.628925
4125.000000	-62.597942
4140.625000	-62.857021
4156.250000	-63.058292
4171.875000	-63.099197
4187.500000	-62.917019
4203.125000	-62.669018
4218.750000	-61.968140
4234.375000	-60.846149
4250.000000	-59.508625
4265.625000	-57.697731
4281.250000	-55.639236
4296.875000	-54.348297
4312.500000	-55.022854
4328.125000	-56.869118
4343.750000	-58.911766
4359.375000	-60.933067
4375.000000	-62.652588
4390.625000	-63.998844
4406.250000	-65.097816
4421.875000	-65.617050
4437.500000	-66.063828
4453.125000	-66.123230
4468.750000	-66.120201
4484.375000	-65.876312
4500.000000	-65.399162
4515.625000	-64.399330
4531.250000	-62.959335
4546.875000	-61.035576
4562.500000	-59.025055
4578.125000	-57.898457
4593.750000	-58.010506
4609.375000	-59.337742
4625.000000	-61.719078
4640.625000	-63.986256
4656.250000	-65.572861
4671.875000	-66.765968
4687.500000	-67.992546
4703.125000	-68.686569
4718.750000	-69.565201
4734.375000	-69.881187
4750.000000	-69.631386
4765.625000	-69.279114
4781.250000	-68.711586
4796.875000	-67.782249
4812.500000	-66.540741
4828.125000	-64.927391
4843.750000	-62.737251
4859.375000	-60.683521
4875.000000	-60.067341
4890.625000	-61.635372
4906.250000	-64.220833
4921.875000	-66.606300
4937.500000	-68.451714
4953.125000	-69.863281
4968.750000	-71.200737
4984.375000	-72.236397
5000.000000	-72.302864
5015.625000	-72.363495
5031.250000	-72.602791
5046.875000	-72.209549
5062.500000	-71.726486
5078.125000	-71.255150
5093.750000	-69.628616
5109.375000	-68.130760
5125.000000	-65.264267
5140.625000	-63.136356
5156.250000	-62.465317
5171.875000	-63.956856
5187.500000	-66.580864
5203.125000	-69.333160
5218.750000	-71.020988
5234.375000	-72.375046
5250.000000	-73.604736
5265.625000	-74.554878
5281.250000	-74.787521
5296.875000	-75.135262
5312.500000	-75.093742
5328.125000	-74.896088
5343.750000	-74.140732
5359.375000	-73.422829
5375.000000	-72.181007
5390.625000	-70.524193
5406.250000	-68.482018
5421.875000	-65.975121
5437.500000	-64.978615
5453.125000	-66.157883
5468.750000	-68.692795
5484.375000	-71.317871
5500.000000	-73.278564
5515.625000	-74.689507
5531.250000	-75.666649
5546.875000	-76.457764
5562.500000	-77.174469
5578.125000	-77.399422
5593.750000	-77.356697
5609.375000	-77.021370
5625.000000	-76.634941
5640.625000	-75.585968
5656.250000	-74.675629
5671.875000	-72.954720
5687.500000	-71.028702
5703.125000	-68.900871
5718.750000	-67.766998
5734.375000	-68.671524
5750.000000	-71.076462
5765.625000	-73.203819
5781.250000	-75.228386
5796.875000	-76.846649
5812.500000	-77.955048
5828.125000	-78.640022
5843.750000	-79.257545
5859.375000	-79.582840
5875.000000	-79.401047
5890.625000	-79.018044
5906.250000	-78.716843
5921.875000	-78.122284
5937.500000	-76.879662
5953.125000	-75.597450
5968.750000	-73.904190
5984.375000	-72.091080
6000.000000	-71.376968
6015.625000	-71.956917
6031.250000	-73.513588
6046.875000	-75.399971
6062.500000	-77.165771
6078.125000	-78.621857
6093.750000	-79.637703
6109.375000	-80.429016
6125.000000	-81.024857
6140.625000	-81.373474
6156.250000	-81.279739
6171.875000	-81.340324
6187.500000	-81.137054
6203.125000	-80.472931
6218.750000	-79.880699
6234.375000	-78.901337
6250.000000	-77.796410
6265.625000	-76.423492
6281.250000	-75.350945
6296.875000	-75.339333
6312.500000	-76.353790
6328.125000	-77.679825
6343.750000	-79.364899
6359.375000	-80.906349
6375.000000	-82.054695
6390.625000	-82.906189
6406.250000	-83.528099
6421.875000	-83.976746
6437.500000	-84.012383
6453.125000	-84.294228
6468.750000	-84.296127
6484.375000	-83.875664
6500.000000	-83.383934
6515.625000	-82.788734
6531.250000	-82.110718
6546.875000	-81.029343
6562.500000	-79.861404
6578.125000	-79.208595
6593.750000	-79.324188
6609.375000	-80.295212
6625.000000	-81.561508
6640.625000	-82.927826
6656.250000	-84.428612
6671.875000	-85.824417
6687.500000	-86.795822
6703.125000	-87.239815
6718.750000	-87.834045
6734.375000	-88.165680
6750.000000	-88.064362
6765.625000	-88.083366
6781.250000	-88.173714
6796.875000	-87.805939
6812.500000	-87.172638
6828.125000	-86.370323
6843.750000	-85.269501
6859.375000	-84.175079
6875.000000	-83.847885
6890.625000	-84.302910
6906.250000	-85.555595
6921.875000	-87.549492
6937.500000	-89.165260
6953.125000	-90.275345
6968.750000	-90.940277
6984.375000	-91.813599
7000.000000	-92.252174
7015.625000	-92.560005
7031.250000	-92.725937
7046.875000	-92.984093
7062.500000	-93.165253
7078.125000	-92.828293
7093.750000	-92.643394
7109.375000	-92.291367
7125.000000	-91.717766
7140.625000	-91.081406
7156.250000	-90.643898
7171.875000	-90.841927
7187.500000	-91.900124
7203.125000	-93.191528
7218.750000	-93.783203
7234.375000	-94.321594
7250.000000	-94.599319
7265.625000	-94.652588
7281.250000	-94.507553
7296.875000	-94.761383
7312.500000	-94.961700
7328.125000	-94.831490
7343.750000	-94.833176
7359.375000	-95.101509
7375.000000	-95.050034
7390.625000	-94.881287
7406.250000	-94.862694
7421.875000	-94.627853
7437.500000	-94.841003
7453.125000	-94.952446
7468.750000	-94.972618
7484.375000	-95.176765
7500.000000	-95.311180
7515.625000	-95.538727
7531.250000	-96.156609
7546.875000	-96.501144
7562.500000	-96.943855
7578.125000	-97.444847
7593.750000	-97.916283
7609.375000	-98.722488
7625.000000	-99.622475
7640.625000	-100.653931
7656.250000	-102.195297
7671.875000	-103.710434
7687.500000	-105.156990
7703.125000	-107.035812
7718.750000	-109.523743
7734.375000	-112.152611
7750.000000	-114.884605
7765.625000	-117.952156
7781.250000	-121.299400
7796.875000	-124.988495
7812.500000	-129.091995
7828.125000	-133.519150
7843.750000	-138.371674
7859.375000	-143.746933
7875.000000	-149.822708
7890.625000	-156.194458
7906.250000	-163.279510
7921.875000	-170.672256
7937.500000	-176.756393
7953.125000	-179.385132
7968.750000	-180.364212
7984.375000	-180.820953
