Frequency (Hz)	Level (dB)
15.625000	-79.426743
31.250000	-76.730400
46.875000	-73.553200
62.500000	-65.235916
78.125000	-57.067558
93.750000	-55.431610
109.375000	-46.831791
125.000000	-45.358368
140.625000	-54.641537
156.250000	-66.174980
171.875000	-71.260345
187.500000	-72.958702
203.125000	-72.919060
218.750000	-71.035599
234.375000	-67.221649
250.000000	-65.429367
265.625000	-65.093826
281.250000	-67.250511
296.875000	-71.115494
312.500000	-73.410133
328.125000	-73.765671
343.750000	-73.362892
359.375000	-71.046722
375.000000	-66.387428
390.625000	-63.731499
406.250000	-66.371063
421.875000	-70.318161
437.500000	-72.072433
453.125000	-73.317261
468.750000	-73.565109
484.375000	-71.975883
500.000000	-69.282639
515.625000	-68.127556
531.250000	-67.895813
546.875000	-69.404373
562.500000	-72.727730
578.125000	-74.272743
593.750000	-74.405212
609.375000	-74.100563
625.000000	-73.552147
640.625000	-72.591766
656.250000	-70.086868
671.875000	-64.431664
687.500000	-61.446777
703.125000	-64.044487
718.750000	-68.532753
734.375000	-70.356041
750.000000	-70.487488
765.625000	-68.808258
781.250000	-63.816242
796.875000	-58.777126
812.500000	-59.305981
828.125000	-64.569824
843.750000	-68.364464
859.375000	-69.603699
875.000000	-69.364937
890.625000	-67.680664
906.250000	-63.790184
921.875000	-59.685787
937.500000	-59.328003
953.125000	-63.014477
968.750000	-66.425957
984.375000	-67.985847
1000.000000	-67.942368
1015.625000	-66.781456
1031.250000	-64.767975
1046.875000	-62.656082
1062.500000	-62.325111
1078.125000	-64.512642
1093.750000	-66.837379
1109.375000	-67.471336
1125.000000	-67.202148
1140.625000	-66.922394
1156.250000	-66.280533
1171.875000	-65.575394
1187.500000	-64.991997
1203.125000	-64.864494
1218.750000	-65.005310
1234.375000	-65.371742
1250.000000	-65.577812
1265.625000	-65.919525
1281.250000	-65.844109
1296.875000	-65.783775
1312.500000	-65.257080
1328.125000	-64.113884
1343.750000	-62.489334
1359.375000	-60.884243
1375.000000	-60.502190
1390.625000	-61.951744
1406.250000	-63.623055
1421.875000	-64.718666
1437.500000	-64.859825
1453.125000	-63.829399
1468.750000	-61.740585
1484.375000	-58.918777
1500.000000	-58.006748
1515.625000	-60.070381
1531.250000	-62.811386
1546.875000	-64.797287
1562.500000	-65.611137
1578.125000	-65.232666
1593.750000	-63.254189
1609.375000	-59.025192
1625.000000	-56.276691
1640.625000	-57.970474
1656.250000	-62.349407
1671.875000	-65.358940
1687.500000	-66.528114
1703.125000	-66.326210
1718.750000	-64.628471
1734.375000	-60.996517
1750.000000	-56.374870
1765.625000	-56.251511
1781.250000	-60.910927
1796.875000	-65.046944
1812.500000	-66.928284
1828.125000	-67.642410
1843.750000	-66.887772
1859.375000	-63.675667
1875.000000	-58.411991
1890.625000	-55.906006
1906.250000	-58.867706
1921.875000	-64.377144
1937.500000	-67.362007
1953.125000	-68.275436
1968.750000	-68.129990
1984.375000	-66.306595
2000.000000	-61.381889
2015.625000	-56.447189
2031.250000	-57.011353
2046.875000	-62.189388
2062.500000	-66.482018
2078.125000	-68.399994
2093.750000	-68.684792
2109.375000	-67.655380
2125.000000	-64.395432
2140.625000	-58.503658
2156.250000	-55.752750
2171.875000	-59.227222
2187.500000	-65.069321
2203.125000	-68.068314
2218.750000	-69.075523
2234.375000	-68.470337
2250.000000	-66.501556
2265.625000	-61.941582
2281.250000	-56.724056
2296.875000	-56.835236
2312.500000	-62.106178
2328.125000	-66.907860
2343.750000	-68.609192
2359.375000	-68.889351
2375.000000	-67.496559
2390.625000	-64.519333
2406.250000	-58.600220
2421.875000	-55.431736
2437.500000	-58.809856
2453.125000	-64.816200
2468.750000	-67.578545
2484.375000	-68.475914
2500.000000	-68.102890
2515.625000	-65.837280
2531.250000	-61.159630
2546.875000	-55.589912
2562.500000	-55.569038
2578.125000	-61.093819
2593.750000	-65.922325
2609.375000	-67.608009
2625.000000	-67.907341
2640.625000	-66.857689
2656.250000	-63.490181
2671.875000	-57.230999
2687.500000	-54.253368
2703.125000	-57.426239
2718.750000	-63.019817
2734.375000	-65.911713
2750.000000	-67.009163
2765.625000	-66.411926
2781.250000	-64.369995
2796.875000	-59.306774
2812.500000	-54.357574
2828.125000	-54.772709
2843.750000	-60.089859
2859.375000	-64.120285
2875.000000	-65.414391
2890.625000	-65.691246
2906.250000	-64.375160
2921.875000	-61.052589
2937.500000	-56.477650
2953.125000	-54.412556
2968.750000	-57.097916
2984.375000	-61.586658
3000.000000	-63.938068
3015.625000	-64.890320
3031.250000	-64.018387
3046.875000	-62.330681
3062.500000	-58.629959
3078.125000	-55.600750
3093.750000	-55.895153
3109.375000	-58.990288
3125.000000	-62.009666
3140.625000	-63.091625
3156.250000	-63.238407
3171.875000	-62.406174
3187.500000	-60.711395
3203.125000	-58.148338
3218.750000	-56.443317
3234.375000	-56.965336
3250.000000	-59.289238
3265.625000	-61.454876
3281.250000	-62.509258
3296.875000	-62.851917
3312.500000	-62.473751
3328.125000	-61.019306
3343.750000	-58.674999
3359.375000	-56.424095
3375.000000	-56.936016
3390.625000	-59.554020
3406.250000	-61.974125
3421.875000	-63.562111
3437.500000	-63.912876
3453.125000	-63.350517
3468.750000	-61.394112
3484.375000	-57.946774
3500.000000	-55.924393
3515.625000	-57.895279
3531.250000	-61.840084
3546.875000	-64.646736
3562.500000	-65.977272
3578.125000	-66.033020
3593.750000	-64.573586
3609.375000	-61.321613
3625.000000	-57.717926
3640.625000	-57.373219
3656.250000	-61.010738
3671.875000	-65.249901
3687.500000	-67.455742
3703.125000	-68.025383
3718.750000	-67.339828
3734.375000	-65.269180
3750.000000	-61.384964
3765.625000	-58.437683
3781.250000	-60.128902
3796.875000	-64.543015
3812.500000	-67.874229
3828.125000	-69.139290
3843.750000	-69.152893
3859.375000	-68.035568
3875.000000	-64.818535
3890.625000	-60.119011
3906.250000	-58.874462
3921.875000	-62.713924
3937.500000	-67.813629
3953.125000	-70.083054
3968.750000	-70.830963
3984.375000	-70.412109
4000.000000	-68.319702
4015.625000	-63.589516
4031.250000	-59.950188
4046.875000	-61.474926
4062.500000	-66.642387
4078.125000	-69.966393
4093.750000	-71.396873
4109.375000	-71.952736
4125.000000	-70.616356
4140.625000	-67.505424
4156.250000	-62.324959
4171.875000	-60.321068
4187.500000	-63.903744
4203.125000	-69.191597
4218.750000	-72.096664
4234.375000	-72.708733
4250.000000	-72.273361
4265.625000	-70.288445
4281.250000	-65.528687
4296.875000	-60.981354
4312.500000	-61.560684
4328.125000	-66.896065
4343.750000	-71.242592
4359.375000	-72.757591
4375.000000	-72.844757
4390.625000	-72.007675
4406.250000	-69.070160
4421.875000	-63.329140
4437.500000	-60.938057
4453.125000	-64.182915
4468.750000	-69.627083
4484.375000	-72.648628
4500.000000	-73.744385
4515.625000	-73.236877
4531.250000	-71.553101
4546.875000	-66.688721
4562.500000	-61.602314
4578.125000	-61.864330
4593.750000	-67.239220
4609.375000	-71.726540
4625.000000	-73.421608
4640.625000	-73.842377
4656.250000	-72.912643
4671.875000	-70.141777
4687.500000	-64.546753
4703.125000	-61.567310
4718.750000	-64.243881
4734.375000	-69.616150
4750.000000	-72.727806
4765.625000	-73.961212
4781.250000	-73.598213
4796.875000	-71.941483
4812.500000	-67.579292
4828.125000	-62.140163
4843.750000	-61.478230
4859.375000	-66.116127
4875.000000	-70.890770
4890.625000	-73.122505
4906.250000	-73.714104
4921.875000	-72.683296
4937.500000	-69.961418
4953.125000	-64.501297
4968.750000	-60.894745
4984.375000	-63.017857
5000.000000	-68.557076
5015.625000	-71.888046
5031.250000	-73.129700
5046.875000	-73.062737
5062.500000	-71.146866
5078.125000	-67.479881
5093.750000	-62.089272
5109.375000	-60.550747
5125.000000	-64.496971
5140.625000	-69.544090
5156.250000	-71.608139
5171.875000	-71.999634
5187.500000	-71.450623
5203.125000	-68.967216
5218.750000	-64.164452
5234.375000	-59.947552
5250.000000	-61.087227
5265.625000	-66.277664
5281.250000	-69.811989
5296.875000	-71.181053
5312.500000	-71.061623
5328.125000	-69.757797
5343.750000	-66.112129
5359.375000	-60.348686
5375.000000	-58.431580
5390.625000	-61.900894
5406.250000	-66.753960
5421.875000	-69.429131
5437.500000	-70.331429
5453.125000	-69.391731
5468.750000	-66.857300
5484.375000	-61.959011
5500.000000	-57.458885
5515.625000	-58.010983
5531.250000	-62.883316
5546.875000	-66.562790
5562.500000	-68.086502
5578.125000	-68.182022
5593.750000	-66.564842
5609.375000	-63.147835
5625.000000	-57.631638
5640.625000	-55.475319
5656.250000	-58.604668
5671.875000	-63.091335
5687.500000	-65.209114
5703.125000	-65.686562
5718.750000	-64.861946
5734.375000	-62.625896
5750.000000	-57.730980
5765.625000	-53.443710
5781.250000	-54.012829
5796.875000	-58.442783
5812.500000	-61.660301
5828.125000	-62.899826
5843.750000	-62.465176
5859.375000	-60.463409
5875.000000	-56.522491
5890.625000	-52.404259
5906.250000	-51.160080
5921.875000	-53.768303
5937.500000	-56.902325
5953.125000	-58.104568
5968.750000	-57.868172
5984.375000	-56.152039
6000.000000	-53.445160
6015.625000	-50.745953
6031.250000	-50.122601
6046.875000	-51.214413
6062.500000	-52.065948
6078.125000	-52.672100
6093.750000	-52.870262
6109.375000	-52.864315
6125.000000	-53.606270
6140.625000	-54.220570
6156.250000	-54.467674
6171.875000	-53.306240
6187.500000	-51.422138
6203.125000	-51.557625
6218.750000	-54.329906
6234.375000	-57.686993
6250.000000	-59.928761
6265.625000	-60.684566
6281.250000	-60.075848
6296.875000	-57.724850
6312.500000	-54.657246
6328.125000	-53.953777
6343.750000	-57.219864
6359.375000	-61.620632
6375.000000	-64.075851
6390.625000	-65.572021
6406.250000	-65.544533
6421.875000	-63.727863
6437.500000	-60.056393
6453.125000	-57.437054
6468.750000	-59.170746
6484.375000	-63.964043
6500.000000	-67.558182
6515.625000	-69.430672
6531.250000	-70.040405
6546.875000	-69.297890
6562.500000	-66.632294
6578.125000	-62.621288
6593.750000	-61.746563
6609.375000	-65.628777
6625.000000	-70.818054
6640.625000	-73.496918
6656.250000	-74.553337
6671.875000	-74.419609
6687.500000	-72.547745
6703.125000	-68.426865
6718.750000	-65.429489
6734.375000	-67.379608
6750.000000	-72.488876
6765.625000	-76.433220
6781.250000	-78.511818
6796.875000	-78.445518
6812.500000	-77.895905
6828.125000	-75.536118
6843.750000	-71.620567
6859.375000	-70.368904
6875.000000	-73.882607
6890.625000	-78.615425
6906.250000	-81.679115
6921.875000	-83.165779
6937.500000	-83.213692
6953.125000	-81.800392
6968.750000	-78.509247
6984.375000	-74.966164
7000.000000	-75.857201
7015.625000	-80.917664
7031.250000	-85.187744
7046.875000	-87.060577
7062.500000	-87.939102
7078.125000	-87.812363
7093.750000	-86.080650
7109.375000	-82.310417
7125.000000	-80.509987
7140.625000	-83.526848
7156.250000	-88.072304
7171.875000	-90.717484
7187.500000	-91.621811
7203.125000	-92.059883
7218.750000	-91.389908
7234.375000	-89.357819
7250.000000	-86.598213
7265.625000	-86.909698
7281.250000	-90.777771
7296.875000	-92.968246
7312.500000	-93.662331
7328.125000	-93.903519
7343.750000	-94.058052
7359.375000	-93.695297
7375.000000	-92.636238
7390.625000	-91.546707
7406.250000	-92.884323
7421.875000	-94.157875
7437.500000	-94.241890
7453.125000	-94.493553
7468.750000	-94.868706
7484.375000	-95.143463
7500.000000	-95.045609
7515.625000	-94.737625
7531.250000	-95.024117
7546.875000	-95.788925
7562.500000	-96.259193
7578.125000	-96.882759
7593.750000	-97.383888
7609.375000	-98.401161
7625.000000	-99.282341
7640.625000	-100.272430
7656.250000	-101.600983
7671.875000	-103.171173
7687.500000	-105.068001
7703.125000	-107.070053
7718.750000	-109.318817
7734.375000	-111.806175
7750.000000	-114.440544
7765.625000	-117.312027
7781.250000	-120.551056
7796.875000	-124.387398
7812.500000	-128.746445
7828.125000	-133.084213
7843.750000	-138.167480
7859.375000	-143.638885
7875.000000	-149.728287
7890.625000	-156.087738
7906.250000	-162.345306
7921.875000	-167.246231
7937.500000	-171.803345
7953.125000	-172.950653
7968.750000	-173.223282
7984.375000	-173.339935
