Frequency (Hz)	Level (dB)
15.625000	-52.401386
31.250000	-53.828209
46.875000	-51.953529
62.500000	-50.584309
78.125000	-49.016010
93.750000	-47.726517
109.375000	-43.235012
125.000000	-40.209503
140.625000	-42.257271
156.250000	-45.649113
171.875000	-46.996063
187.500000	-47.323261
203.125000	-47.331936
218.750000	-46.965893
234.375000	-45.269417
250.000000	-42.625286
265.625000	-41.924538
281.250000	-43.575924
296.875000	-45.429207
312.500000	-46.543007
328.125000	-46.947178
343.750000	-46.779957
359.375000	-45.275112
375.000000	-41.976818
390.625000	-40.007343
406.250000	-41.840855
421.875000	-43.800709
437.500000	-44.884872
453.125000	-45.817848
468.750000	-46.015732
484.375000	-44.839275
500.000000	-43.123550
515.625000	-41.965160
531.250000	-41.718987
546.875000	-42.976318
562.500000	-44.834789
578.125000	-45.849579
593.750000	-46.291885
609.375000	-45.760803
625.000000	-45.248264
640.625000	-44.546661
656.250000	-42.431126
671.875000	-37.789326
687.500000	-35.528263
703.125000	-38.346371
718.750000	-41.774143
734.375000	-42.884167
750.000000	-42.548565
765.625000	-40.871403
781.250000	-36.291710
796.875000	-31.402393
812.500000	-32.245720
828.125000	-37.282936
843.750000	-40.346294
859.375000	-41.491631
875.000000	-41.405067
890.625000	-39.641796
906.250000	-35.899128
921.875000	-31.830091
937.500000	-31.942554
953.125000	-35.630299
968.750000	-38.836372
984.375000	-40.000114
1000.000000	-39.778290
1015.625000	-38.368378
1031.250000	-36.013107
1046.875000	-34.199417
1062.500000	-34.566753
1078.125000	-36.580002
1093.750000	-38.089756
1109.375000	-38.613457
1125.000000	-38.594318
1140.625000	-38.340866
1156.250000	-37.628639
1171.875000	-36.899799
1187.500000	-36.206600
1203.125000	-36.022434
1218.750000	-36.252998
1234.375000	-36.493118
1250.000000	-36.630051
1265.625000	-36.621361
1281.250000	-36.656403
1296.875000	-36.416847
1312.500000	-35.786991
1328.125000	-34.950302
1343.750000	-33.038174
1359.375000	-31.632105
1375.000000	-31.705429
1390.625000	-33.004959
1406.250000	-34.543091
1421.875000	-35.625362
1437.500000	-35.565784
1453.125000	-34.075459
1468.750000	-31.556749
1484.375000	-28.792263
1500.000000	-28.483704
1515.625000	-30.731504
1531.250000	-33.514679
1546.875000	-35.434998
1562.500000	-35.821705
1578.125000	-34.795784
1593.750000	-32.441780
1609.375000	-28.425385
1625.000000	-26.394175
1640.625000	-28.648119
1656.250000	-32.825958
1671.875000	-35.484619
1687.500000	-36.145157
1703.125000	-35.899342
1718.750000	-34.252876
1734.375000	-30.101757
1750.000000	-26.165691
1765.625000	-26.958431
1781.250000	-31.799431
1796.875000	-35.057629
1812.500000	-36.745079
1828.125000	-36.863060
1843.750000	-35.699787
1859.375000	-32.583073
1875.000000	-27.510157
1890.625000	-25.784754
1906.250000	-29.250380
1921.875000	-34.057617
1937.500000	-36.596794
1953.125000	-37.249111
1968.750000	-36.545925
1984.375000	-34.179825
2000.000000	-29.315247
2015.625000	-25.154478
2031.250000	-26.746899
2046.875000	-32.479416
2062.500000	-35.737019
2078.125000	-37.141201
2093.750000	-37.148243
2109.375000	-35.653545
2125.000000	-32.164673
2140.625000	-26.580679
2156.250000	-25.194105
2171.875000	-29.534342
2187.500000	-34.631382
2203.125000	-36.818390
2218.750000	-37.313030
2234.375000	-36.531139
2250.000000	-34.265217
2265.625000	-29.281559
2281.250000	-24.925039
2296.875000	-26.409260
2312.500000	-32.220406
2328.125000	-35.669933
2343.750000	-36.988125
2359.375000	-36.654789
2375.000000	-35.246868
2390.625000	-31.868557
2406.250000	-25.952894
2421.875000	-24.536673
2437.500000	-28.987036
2453.125000	-33.586548
2468.750000	-35.802570
2484.375000	-36.635834
2500.000000	-35.851357
2515.625000	-33.103611
2531.250000	-27.542864
2546.875000	-23.197145
2562.500000	-24.895042
2578.125000	-30.966106
2593.750000	-34.124405
2609.375000	-35.415745
2625.000000	-35.053036
2640.625000	-33.527584
2656.250000	-29.961441
2671.875000	-24.083126
2687.500000	-22.485413
2703.125000	-26.932463
2718.750000	-31.993801
2734.375000	-33.861973
2750.000000	-34.396034
2765.625000	-33.711815
2781.250000	-31.168337
2796.875000	-25.857065
2812.500000	-22.296478
2828.125000	-24.116512
2843.750000	-29.216202
2859.375000	-32.101433
2875.000000	-33.086567
2890.625000	-32.731388
2906.250000	-31.120888
2921.875000	-27.392282
2937.500000	-22.554253
2953.125000	-22.043087
2968.750000	-26.149351
2984.375000	-29.939785
3000.000000	-31.583057
3015.625000	-32.020554
3031.250000	-31.038509
3046.875000	-28.621536
3062.500000	-25.211679
3078.125000	-22.979309
3093.750000	-24.137884
3109.375000	-27.156157
3125.000000	-29.389179
3140.625000	-30.134197
3156.250000	-30.255045
3171.875000	-29.420147
3187.500000	-27.195845
3203.125000	-24.917025
3218.750000	-23.676855
3234.375000	-24.725782
3250.000000	-27.287342
3265.625000	-28.969221
3281.250000	-29.622368
3296.875000	-29.916529
3312.500000	-28.822042
3328.125000	-27.039705
3343.750000	-24.561850
3359.375000	-23.551311
3375.000000	-24.808382
3390.625000	-27.280779
3406.250000	-29.592340
3421.875000	-30.762608
3437.500000	-30.868607
3453.125000	-29.541695
3468.750000	-27.007967
3484.375000	-23.902933
3500.000000	-23.182299
3515.625000	-25.890825
3531.250000	-29.513378
3546.875000	-31.783438
3562.500000	-32.551403
3578.125000	-31.963985
3593.750000	-30.334085
3609.375000	-26.857533
3625.000000	-24.061562
3640.625000	-25.150467
3656.250000	-29.327457
3671.875000	-32.546806
3687.500000	-33.978516
3703.125000	-34.158401
3718.750000	-33.223087
3734.375000	-30.617855
3750.000000	-26.712801
3765.625000	-25.571011
3781.250000	-28.314434
3796.875000	-32.228096
3812.500000	-34.307919
3828.125000	-35.507469
3843.750000	-35.399662
3859.375000	-33.763824
3875.000000	-29.502598
3890.625000	-25.627285
3906.250000	-26.468363
3921.875000	-31.152864
3937.500000	-34.825134
3953.125000	-36.451756
3968.750000	-36.640091
3984.375000	-35.607288
4000.000000	-32.771229
4015.625000	-28.017378
4031.250000	-25.934219
4046.875000	-29.061756
4062.500000	-33.969135
4078.125000	-36.693794
4093.750000	-37.708530
4109.375000	-37.117725
4125.000000	-35.588989
4140.625000	-31.470121
4156.250000	-27.008936
4171.875000	-27.228043
4187.500000	-32.009220
4203.125000	-36.080994
4218.750000	-37.858578
4234.375000	-38.061890
4250.000000	-36.990101
4265.625000	-34.326885
4281.250000	-29.257380
4296.875000	-26.364767
4312.500000	-29.301083
4328.125000	-34.891842
4343.750000	-37.473763
4359.375000	-38.521530
4375.000000	-38.211578
4390.625000	-36.580105
4406.250000	-32.445480
4421.875000	-27.264078
4437.500000	-27.126146
4453.125000	-32.559544
4468.750000	-36.962566
4484.375000	-38.426678
4500.000000	-38.557724
4515.625000	-37.807880
4531.250000	-35.225632
4546.875000	-29.836660
4562.500000	-26.722918
4578.125000	-29.465916
4593.750000	-35.076035
4609.375000	-37.664078
4625.000000	-38.707443
4640.625000	-38.618225
4656.250000	-36.950085
4671.875000	-32.848274
4687.500000	-28.258394
4703.125000	-27.810205
4718.750000	-31.924173
4734.375000	-36.249508
4750.000000	-38.110432
4765.625000	-38.650311
4781.250000	-37.675369
4796.875000	-35.165901
4812.500000	-30.403517
4828.125000	-26.785414
4843.750000	-28.738523
4859.375000	-34.073719
4875.000000	-37.040005
4890.625000	-38.189484
4906.250000	-38.322189
4921.875000	-36.767525
4937.500000	-33.036697
4953.125000	-27.907896
4968.750000	-26.816069
4984.375000	-30.802170
5000.000000	-35.376621
5015.625000	-37.411808
5031.250000	-37.628120
5046.875000	-36.886574
5062.500000	-34.678123
5078.125000	-30.008028
5093.750000	-25.791155
5109.375000	-26.996294
5125.000000	-32.359646
5140.625000	-35.473679
5156.250000	-36.682964
5171.875000	-36.554424
5187.500000	-35.248890
5203.125000	-31.856833
5218.750000	-26.750383
5234.375000	-24.904222
5250.000000	-28.225994
5265.625000	-32.868710
5281.250000	-35.195992
5296.875000	-35.610935
5312.500000	-34.946442
5328.125000	-32.781891
5343.750000	-28.325478
5359.375000	-24.122055
5375.000000	-24.898817
5390.625000	-29.628792
5406.250000	-33.107822
5421.875000	-34.390148
5437.500000	-34.206020
5453.125000	-32.758938
5468.750000	-29.444666
5484.375000	-24.105000
5500.000000	-21.833710
5515.625000	-24.818073
5531.250000	-29.565027
5546.875000	-31.904148
5562.500000	-32.618076
5578.125000	-31.817463
5593.750000	-29.388401
5609.375000	-24.810575
5625.000000	-20.629211
5640.625000	-21.170420
5656.250000	-25.678888
5671.875000	-29.063251
5687.500000	-30.078926
5703.125000	-29.532080
5718.750000	-28.079098
5734.375000	-24.408291
5750.000000	-19.434986
5765.625000	-17.769138
5781.250000	-20.595427
5796.875000	-24.741354
5812.500000	-26.734249
5828.125000	-27.071856
5843.750000	-25.580736
5859.375000	-22.708380
5875.000000	-18.160599
5890.625000	-15.401229
5906.250000	-16.722050
5921.875000	-20.145676
5937.500000	-22.286707
5953.125000	-22.487398
5968.750000	-21.011906
5984.375000	-18.488335
6000.000000	-15.803666
6015.625000	-14.578222
6031.250000	-15.145727
6046.875000	-16.111568
6062.500000	-16.633095
6078.125000	-16.940144
6093.750000	-17.109877
6109.375000	-17.958448
6125.000000	-19.119865
6140.625000	-19.154013
6156.250000	-18.317196
6171.875000	-16.471975
6187.500000	-15.499715
6203.125000	-17.133806
6218.750000	-20.893362
6234.375000	-23.764606
6250.000000	-25.128489
6265.625000	-24.974602
6281.250000	-23.259848
6296.875000	-20.340845
6312.500000	-18.268150
6328.125000	-20.170488
6343.750000	-24.723921
6359.375000	-27.599003
6375.000000	-29.143814
6390.625000	-29.814037
6406.250000	-28.750866
6421.875000	-25.907093
6437.500000	-22.439663
6453.125000	-22.418072
6468.750000	-26.419609
6484.375000	-30.637533
6500.000000	-32.545723
6515.625000	-33.500103
6531.250000	-33.422359
6546.875000	-31.355103
6562.500000	-27.549591
6578.125000	-25.258001
6593.750000	-27.406570
6609.375000	-32.549828
6625.000000	-35.717709
6640.625000	-37.105175
6656.250000	-37.489319
6671.875000	-36.532631
6687.500000	-33.673542
6703.125000	-30.075888
6718.750000	-30.074783
6734.375000	-34.230061
6750.000000	-38.374287
6765.625000	-40.197124
6781.250000	-40.773621
6796.875000	-40.410786
6812.500000	-39.194012
6828.125000	-35.986698
6843.750000	-33.504398
6859.375000	-35.499744
6875.000000	-39.807087
6890.625000	-42.460579
6906.250000	-43.666428
6921.875000	-44.014744
6937.500000	-43.631844
6953.125000	-41.722675
6968.750000	-38.224998
6984.375000	-37.689762
7000.000000	-41.361477
7015.625000	-44.567104
7031.250000	-45.997105
7046.875000	-46.427902
7062.500000	-46.337879
7078.125000	-45.665691
7093.750000	-43.619179
7109.375000	-41.929646
7125.000000	-43.034386
7140.625000	-45.757988
7156.250000	-47.218735
7171.875000	-47.953999
7187.500000	-47.932495
7203.125000	-47.685806
7218.750000	-47.010059
7234.375000	-45.735237
7250.000000	-45.155087
7265.625000	-46.511189
7281.250000	-47.837570
7296.875000	-48.521942
7312.500000	-48.579048
7328.125000	-48.531075
7343.750000	-48.074272
7359.375000	-47.546310
7375.000000	-46.906895
7390.625000	-47.275913
7406.250000	-48.114807
7421.875000	-48.709831
7437.500000	-49.222717
7453.125000	-49.078571
7468.750000	-48.622116
7484.375000	-48.330101
7500.000000	-48.060303
7515.625000	-48.002670
7531.250000	-48.560112
7546.875000	-49.791653
7562.500000	-50.690060
7578.125000	-51.045708
7593.750000	-51.704357
7609.375000	-52.204563
7625.000000	-52.507484
7640.625000	-53.249897
7656.250000	-54.990692
7671.875000	-57.041939
7687.500000	-58.879375
7703.125000	-61.309105
7718.750000	-63.691303
7734.375000	-65.937302
7750.000000	-68.398933
7765.625000	-70.799042
7781.250000	-74.076645
7796.875000	-77.745506
7812.500000	-82.186714
7828.125000	-87.181465
7843.750000	-92.095184
7859.375000	-97.557358
7875.000000	-103.122643
7890.625000	-109.555466
7906.250000	-115.949844
7921.875000	-123.224976
7937.500000	-129.303757
7953.125000	-131.771790
7968.750000	-132.536819
7984.375000	-132.868576
