Frequency (Hz)	Level (dB)
15.625000	-75.421638
31.250000	-70.108383
46.875000	-66.500969
62.500000	-62.093063
78.125000	-55.844917
93.750000	-54.204018
109.375000	-46.209023
125.000000	-43.679817
140.625000	-48.180954
156.250000	-54.893909
171.875000	-58.787594
187.500000	-60.250366
203.125000	-60.338966
218.750000	-58.740112
234.375000	-55.547756
250.000000	-52.051998
265.625000	-51.400101
281.250000	-54.067627
296.875000	-57.847473
312.500000	-60.167973
328.125000	-60.612011
343.750000	-60.190773
359.375000	-57.936977
375.000000	-52.935829
390.625000	-50.178631
406.250000	-52.573238
421.875000	-56.685150
437.500000	-58.411816
453.125000	-59.475410
468.750000	-59.553310
484.375000	-58.332710
500.000000	-55.570690
515.625000	-54.173306
531.250000	-54.055309
546.875000	-55.430851
562.500000	-58.641872
578.125000	-60.484283
593.750000	-60.896984
609.375000	-60.405891
625.000000	-59.497776
640.625000	-58.599243
656.250000	-56.698986
671.875000	-51.304588
687.500000	-47.739140
703.125000	-50.021099
718.750000	-54.811878
734.375000	-56.622799
750.000000	-56.708725
765.625000	-54.979893
781.250000	-50.424152
796.875000	-44.929405
812.500000	-44.888210
828.125000	-50.003357
843.750000	-54.152805
859.375000	-55.478512
875.000000	-55.435894
890.625000	-54.042191
906.250000	-50.609482
921.875000	-46.260265
937.500000	-45.488304
953.125000	-48.782375
968.750000	-52.729645
984.375000	-54.348598
1000.000000	-54.669010
1015.625000	-53.244762
1031.250000	-51.120171
1046.875000	-48.771229
1062.500000	-48.469620
1078.125000	-50.290173
1093.750000	-52.307384
1109.375000	-53.302238
1125.000000	-53.577816
1140.625000	-53.160618
1156.250000	-52.134590
1171.875000	-51.257809
1187.500000	-50.815849
1203.125000	-50.836098
1218.750000	-50.957169
1234.375000	-51.340923
1250.000000	-51.680313
1265.625000	-51.755219
1281.250000	-51.764328
1296.875000	-51.572784
1312.500000	-51.046814
1328.125000	-50.290497
1343.750000	-48.627674
1359.375000	-47.040176
1375.000000	-46.611023
1390.625000	-47.890198
1406.250000	-49.677944
1421.875000	-50.912361
1437.500000	-51.145313
1453.125000	-50.249943
1468.750000	-48.000107
1484.375000	-44.924358
1500.000000	-43.633125
1515.625000	-45.409431
1531.250000	-48.700924
1546.875000	-51.093071
1562.500000	-51.767609
1578.125000	-51.304111
1593.750000	-49.556728
1609.375000	-45.750088
1625.000000	-42.663166
1640.625000	-43.596512
1656.250000	-47.736572
1671.875000	-50.936783
1687.500000	-52.405334
1703.125000	-52.448498
1718.750000	-51.127567
1734.375000	-47.730259
1750.000000	-42.771023
1765.625000	-41.756592
1781.250000	-45.790970
1796.875000	-50.645653
1812.500000	-52.985691
1828.125000	-53.525070
1843.750000	-52.884926
1859.375000	-50.750961
1875.000000	-45.687435
1890.625000	-41.749050
1906.250000	-43.584877
1921.875000	-49.417866
1937.500000	-52.879108
1953.125000	-54.080624
1968.750000	-54.133018
1984.375000	-52.597748
2000.000000	-48.414684
2015.625000	-42.957687
2031.250000	-42.295551
2046.875000	-47.081165
2062.500000	-52.044575
2078.125000	-54.436329
2093.750000	-54.998398
2109.375000	-54.130257
2125.000000	-51.507050
2140.625000	-45.921879
2156.250000	-42.106049
2171.875000	-44.334469
2187.500000	-50.135983
2203.125000	-53.692814
2218.750000	-55.080265
2234.375000	-54.636471
2250.000000	-52.993874
2265.625000	-49.153694
2281.250000	-43.427845
2296.875000	-42.206829
2312.500000	-46.821140
2328.125000	-52.029240
2343.750000	-54.458431
2359.375000	-55.027668
2375.000000	-54.040886
2390.625000	-51.364040
2406.250000	-45.911263
2421.875000	-41.547997
2437.500000	-43.451599
2453.125000	-49.458469
2468.750000	-52.955261
2484.375000	-54.454857
2500.000000	-54.300247
2515.625000	-52.841915
2531.250000	-48.858280
2546.875000	-42.660995
2562.500000	-41.030846
2578.125000	-45.396328
2593.750000	-50.787144
2609.375000	-53.431858
2625.000000	-54.092415
2640.625000	-53.119919
2656.250000	-50.548569
2671.875000	-44.809101
2687.500000	-40.659729
2703.125000	-42.206318
2718.750000	-47.968140
2734.375000	-51.578358
2750.000000	-52.956749
2765.625000	-52.776031
2781.250000	-50.940136
2796.875000	-47.194977
2812.500000	-41.875099
2828.125000	-40.748890
2843.750000	-44.910915
2859.375000	-49.215115
2875.000000	-51.300671
2890.625000	-51.699455
2906.250000	-50.709011
2921.875000	-48.150761
2937.500000	-43.593513
2953.125000	-40.149082
2968.750000	-41.629093
2984.375000	-46.339684
3000.000000	-49.050259
3015.625000	-50.339443
3031.250000	-50.381947
3046.875000	-48.729462
3062.500000	-45.875950
3078.125000	-42.488380
3093.750000	-41.503025
3109.375000	-44.024212
3125.000000	-46.914387
3140.625000	-49.085186
3156.250000	-49.659702
3171.875000	-48.968105
3187.500000	-47.222515
3203.125000	-44.995766
3218.750000	-43.217640
3234.375000	-43.015831
3250.000000	-44.718212
3265.625000	-46.797245
3281.250000	-48.267021
3296.875000	-48.768158
3312.500000	-48.450005
3328.125000	-47.475132
3343.750000	-45.322460
3359.375000	-42.881336
3375.000000	-42.525219
3390.625000	-44.484623
3406.250000	-47.332684
3421.875000	-49.413567
3437.500000	-50.218388
3453.125000	-49.943077
3468.750000	-48.279182
3484.375000	-45.166325
3500.000000	-42.253777
3515.625000	-42.805271
3531.250000	-46.488689
3546.875000	-50.130413
3562.500000	-51.799671
3578.125000	-52.072273
3593.750000	-51.190063
3609.375000	-48.825184
3625.000000	-45.023682
3640.625000	-43.275253
3656.250000	-45.668404
3671.875000	-50.182194
3687.500000	-53.056873
3703.125000	-54.058521
3718.750000	-53.809296
3734.375000	-52.231541
3750.000000	-49.047783
3765.625000	-45.271992
3781.250000	-45.140423
3796.875000	-49.012909
3812.500000	-52.950497
3828.125000	-55.003735
3843.750000	-55.705181
3859.375000	-54.887882
3875.000000	-52.394970
3890.625000	-47.765385
3906.250000	-44.793785
3921.875000	-46.946888
3937.500000	-52.435562
3953.125000	-55.577179
3968.750000	-56.813473
3984.375000	-57.228397
4000.000000	-55.588043
4015.625000	-51.704052
4031.250000	-46.795006
4046.875000	-46.046658
4062.500000	-50.203178
4078.125000	-54.779079
4093.750000	-57.298531
4109.375000	-58.269070
4125.000000	-57.396786
4140.625000	-55.058720
4156.250000	-50.539394
4171.875000	-46.314537
4187.500000	-47.640472
4203.125000	-53.059994
4218.750000	-56.581367
4234.375000	-58.320534
4250.000000	-58.572884
4265.625000	-57.483696
4281.250000	-54.287285
4296.875000	-49.123714
4312.500000	-47.169529
4328.125000	-50.722527
4343.750000	-56.007927
4359.375000	-58.547375
4375.000000	-59.432476
4390.625000	-58.674610
4406.250000	-56.421555
4421.875000	-51.990952
4437.500000	-47.740948
4453.125000	-48.641903
4468.750000	-53.979321
4484.375000	-57.956104
4500.000000	-59.420578
4515.625000	-59.556107
4531.250000	-58.452633
4546.875000	-55.351933
4562.500000	-49.587177
4578.125000	-47.201836
4593.750000	-50.716095
4609.375000	-56.279297
4625.000000	-58.930225
4640.625000	-59.969341
4656.250000	-59.419907
4671.875000	-57.754814
4687.500000	-53.559708
4703.125000	-48.333672
4718.750000	-48.119457
4734.375000	-53.048439
4750.000000	-57.659187
4765.625000	-59.666569
4781.250000	-59.847927
4796.875000	-58.847176
4812.500000	-56.284508
4828.125000	-50.594196
4843.750000	-47.367973
4859.375000	-49.865559
4875.000000	-55.124840
4890.625000	-58.273281
4906.250000	-59.524952
4921.875000	-59.450127
4937.500000	-57.756283
4953.125000	-53.602375
4968.750000	-47.969524
4984.375000	-47.143520
5000.000000	-51.883663
5015.625000	-56.699955
5031.250000	-58.743118
5046.875000	-59.057785
5062.500000	-58.136246
5078.125000	-55.790703
5093.750000	-50.620056
5109.375000	-46.429214
5125.000000	-47.911148
5140.625000	-53.352093
5156.250000	-57.041939
5171.875000	-58.321465
5187.500000	-57.999954
5203.125000	-56.487312
5218.750000	-53.063931
5234.375000	-47.973625
5250.000000	-46.285553
5265.625000	-49.432175
5281.250000	-54.076782
5296.875000	-56.902634
5312.500000	-57.484516
5328.125000	-56.711582
5343.750000	-54.225380
5359.375000	-49.610043
5375.000000	-45.060375
5390.625000	-45.631199
5406.250000	-50.582703
5421.875000	-54.221748
5437.500000	-55.629562
5453.125000	-55.843582
5468.750000	-54.341698
5484.375000	-51.061161
5500.000000	-45.726601
5515.625000	-43.323467
5531.250000	-46.239193
5546.875000	-50.993000
5562.500000	-53.243935
5578.125000	-54.037624
5593.750000	-53.836800
5609.375000	-51.392277
5625.000000	-46.758667
5640.625000	-42.117653
5656.250000	-42.238003
5671.875000	-46.681213
5687.500000	-50.573467
5703.125000	-52.044773
5718.750000	-51.694118
5734.375000	-50.194729
5750.000000	-46.681019
5765.625000	-41.380894
5781.250000	-39.128330
5796.875000	-41.873810
5812.500000	-46.155861
5828.125000	-48.063679
5843.750000	-48.837513
5859.375000	-48.015209
5875.000000	-45.451977
5890.625000	-40.941963
5906.250000	-37.431484
5921.875000	-37.928204
5937.500000	-41.500774
5953.125000	-43.885098
5968.750000	-44.370438
5984.375000	-43.235153
6000.000000	-41.110867
6015.625000	-38.429916
6031.250000	-36.294140
6046.875000	-36.293758
6062.500000	-37.743397
6078.125000	-39.004883
6093.750000	-39.204311
6109.375000	-38.860661
6125.000000	-39.277447
6140.625000	-40.253166
6156.250000	-40.732651
6171.875000	-40.202457
6187.500000	-38.514469
6203.125000	-37.109875
6218.750000	-38.113537
6234.375000	-41.553253
6250.000000	-44.886673
6265.625000	-46.700275
6281.250000	-47.094509
6296.875000	-45.698307
6312.500000	-42.669456
6328.125000	-40.045605
6343.750000	-40.892357
6359.375000	-45.207664
6375.000000	-48.722652
6390.625000	-50.970741
6406.250000	-51.688259
6421.875000	-51.053349
6437.500000	-48.669155
6453.125000	-44.987648
6468.750000	-43.631672
6484.375000	-46.797600
6500.000000	-51.800793
6515.625000	-54.725922
6531.250000	-56.057106
6546.875000	-56.203220
6562.500000	-54.416084
6578.125000	-50.866592
6593.750000	-47.784451
6609.375000	-48.766552
6625.000000	-53.826748
6640.625000	-57.957249
6656.250000	-59.877029
6671.875000	-60.635498
6687.500000	-59.916901
6703.125000	-57.347446
6718.750000	-53.049820
6734.375000	-51.658665
6750.000000	-55.106232
6765.625000	-60.151024
6781.250000	-63.272175
6796.875000	-64.700188
6812.500000	-64.828438
6828.125000	-63.635708
6843.750000	-60.259251
6859.375000	-56.648540
6875.000000	-57.018658
6890.625000	-61.677914
6906.250000	-66.078278
6921.875000	-69.098351
6937.500000	-70.132141
6953.125000	-69.770355
6968.750000	-67.857887
6984.375000	-63.553909
7000.000000	-61.244659
7015.625000	-63.944847
7031.250000	-69.311081
7046.875000	-73.037651
7062.500000	-74.925743
7078.125000	-75.607925
7093.750000	-74.822495
7109.375000	-72.112976
7125.000000	-67.939545
7140.625000	-67.688538
7156.250000	-72.089592
7171.875000	-76.988785
7187.500000	-79.997986
7203.125000	-81.289558
7218.750000	-81.552734
7234.375000	-80.158981
7250.000000	-76.272705
7265.625000	-73.253067
7281.250000	-75.214951
7296.875000	-80.731346
7312.500000	-84.675766
7328.125000	-86.947182
7343.750000	-87.718864
7359.375000	-87.225929
7375.000000	-85.423775
7390.625000	-82.060661
7406.250000	-81.280838
7421.875000	-85.269508
7437.500000	-90.062645
7453.125000	-92.008926
7468.750000	-92.846138
7484.375000	-93.237778
7500.000000	-93.193253
7515.625000	-92.344078
7531.250000	-90.899994
7546.875000	-91.867104
7562.500000	-94.748436
7578.125000	-96.185699
7593.750000	-97.175964
7609.375000	-98.091347
7625.000000	-98.855270
7640.625000	-99.918518
7656.250000	-101.144989
7671.875000	-102.438354
7687.500000	-104.293488
7703.125000	-106.650581
7718.750000	-109.002960
7734.375000	-111.531082
7750.000000	-114.497337
7765.625000	-117.722298
7781.250000	-120.929321
7796.875000	-124.644058
7812.500000	-128.608124
7828.125000	-132.961700
7843.750000	-138.059494
7859.375000	-143.242020
7875.000000	-148.947159
7890.625000	-154.468033
7906.250000	-157.586319
7921.875000	-158.869644
7937.500000	-159.314255
7953.125000	-159.441635
7968.750000	-159.496399
7984.375000	-159.517639
