Frequency (Hz)	Level (dB)
15.625000	-56.906528
31.250000	-71.426743
46.875000	-68.839195
62.500000	-62.914753
78.125000	-56.156048
93.750000	-53.725735
109.375000	-45.833260
125.000000	-43.060417
140.625000	-47.146862
156.250000	-53.164707
171.875000	-56.434223
187.500000	-57.292004
203.125000	-56.749126
218.750000	-54.767677
234.375000	-51.109917
250.000000	-47.022182
265.625000	-46.337528
281.250000	-49.683456
296.875000	-53.298042
312.500000	-54.569550
328.125000	-54.817482
343.750000	-53.748966
359.375000	-50.359417
375.000000	-45.831074
390.625000	-44.904030
406.250000	-47.659328
421.875000	-50.204800
437.500000	-52.032169
453.125000	-52.906239
468.750000	-52.304764
484.375000	-50.498409
500.000000	-48.264633
515.625000	-45.748653
531.250000	-45.880238
546.875000	-49.379311
562.500000	-52.225117
578.125000	-52.919548
593.750000	-52.633766
609.375000	-52.221325
625.000000	-51.435589
640.625000	-49.415703
656.250000	-44.559879
671.875000	-39.081547
687.500000	-38.820431
703.125000	-43.356403
718.750000	-46.898331
734.375000	-47.799259
750.000000	-46.900303
765.625000	-43.832607
781.250000	-37.808472
796.875000	-34.452229
812.500000	-37.222229
828.125000	-42.711517
843.750000	-45.375237
859.375000	-45.974388
875.000000	-45.025558
890.625000	-42.215981
906.250000	-37.440495
921.875000	-34.774712
937.500000	-36.920757
953.125000	-41.230274
968.750000	-43.611393
984.375000	-44.192497
1000.000000	-43.411755
1015.625000	-41.452957
1031.250000	-39.160229
1046.875000	-38.466927
1062.500000	-39.769688
1078.125000	-40.764935
1093.750000	-41.497761
1109.375000	-42.346821
1125.000000	-42.425930
1140.625000	-41.874157
1156.250000	-41.077751
1171.875000	-40.422745
1187.500000	-40.142246
1203.125000	-40.107174
1218.750000	-40.112270
1234.375000	-40.109047
1250.000000	-40.180019
1265.625000	-40.281017
1281.250000	-40.244244
1296.875000	-39.821976
1312.500000	-38.781315
1328.125000	-37.038864
1343.750000	-35.136219
1359.375000	-34.435726
1375.000000	-35.492619
1390.625000	-37.314507
1406.250000	-38.645016
1421.875000	-38.981575
1437.500000	-38.201202
1453.125000	-36.129650
1468.750000	-33.038723
1484.375000	-31.318264
1500.000000	-32.821003
1515.625000	-36.066147
1531.250000	-38.415257
1546.875000	-39.330914
1562.500000	-38.948944
1578.125000	-37.060177
1593.750000	-33.211674
1609.375000	-29.856960
1625.000000	-30.717678
1640.625000	-34.953144
1656.250000	-38.336140
1671.875000	-39.826763
1687.500000	-39.881546
1703.125000	-38.469135
1718.750000	-34.866287
1734.375000	-29.965971
1750.000000	-29.108389
1765.625000	-33.297195
1781.250000	-37.923023
1796.875000	-40.091663
1812.500000	-40.639156
1828.125000	-39.764442
1843.750000	-37.007278
1859.375000	-31.640223
1875.000000	-28.522572
1890.625000	-31.198328
1906.250000	-36.790337
1921.875000	-39.874393
1937.500000	-40.988884
1953.125000	-40.651619
1968.750000	-38.680004
1984.375000	-33.935169
2000.000000	-28.853474
2015.625000	-29.339808
2031.250000	-34.904671
2046.875000	-39.227844
2062.500000	-40.979778
2078.125000	-41.188663
2093.750000	-39.962208
2109.375000	-36.596188
2125.000000	-30.599915
2140.625000	-28.186747
2156.250000	-31.947807
2171.875000	-37.659325
2187.500000	-40.316139
2203.125000	-41.149399
2218.750000	-40.572987
2234.375000	-38.304020
2250.000000	-33.078743
2265.625000	-28.196718
2281.250000	-29.271116
2296.875000	-35.090599
2312.500000	-39.119846
2328.125000	-40.655537
2343.750000	-40.667610
2359.375000	-39.198929
2375.000000	-35.461830
2390.625000	-29.327248
2406.250000	-27.387817
2421.875000	-31.669098
2437.500000	-37.221127
2453.125000	-39.605373
2468.750000	-40.221603
2484.375000	-39.414051
2500.000000	-36.776291
2515.625000	-30.926270
2531.250000	-26.509369
2546.875000	-28.515173
2562.500000	-34.567120
2578.125000	-38.133438
2593.750000	-39.370342
2609.375000	-39.138432
2625.000000	-37.394386
2640.625000	-33.142414
2656.250000	-27.383625
2671.875000	-26.439991
2687.500000	-31.147181
2703.125000	-35.911671
2718.750000	-37.921524
2734.375000	-38.261578
2750.000000	-37.159100
2765.625000	-34.127804
2781.250000	-28.710274
2796.875000	-25.817930
2812.500000	-28.479635
2828.125000	-33.433041
2843.750000	-36.212421
2859.375000	-37.051514
2875.000000	-36.513157
2890.625000	-34.463711
2906.250000	-30.289928
2921.875000	-26.112154
2937.500000	-26.260561
2953.125000	-30.323431
2968.750000	-33.894306
2984.375000	-35.424374
3000.000000	-35.479904
3015.625000	-34.231026
3031.250000	-31.488787
3046.875000	-27.860693
3062.500000	-26.307104
3078.125000	-28.225130
3093.750000	-31.422724
3109.375000	-33.424175
3125.000000	-34.107025
3140.625000	-33.714874
3156.250000	-32.286976
3171.875000	-29.941332
3187.500000	-27.685637
3203.125000	-27.232214
3218.750000	-28.860487
3234.375000	-31.051502
3250.000000	-32.537010
3265.625000	-33.122982
3281.250000	-32.830799
3296.875000	-31.595181
3312.500000	-29.375565
3328.125000	-26.989721
3343.750000	-26.467607
3359.375000	-28.454346
3375.000000	-31.248287
3390.625000	-33.173851
3406.250000	-33.966915
3421.875000	-33.639950
3437.500000	-31.990965
3453.125000	-28.796329
3468.750000	-26.057304
3484.375000	-26.777470
3500.000000	-30.433737
3515.625000	-33.729862
3531.250000	-35.419292
3546.875000	-35.764313
3562.500000	-34.790680
3578.125000	-32.143490
3593.750000	-28.344074
3609.375000	-27.086266
3625.000000	-29.962839
3640.625000	-34.100056
3656.250000	-36.575565
3671.875000	-37.523064
3687.500000	-37.186657
3703.125000	-35.378109
3718.750000	-31.661106
3734.375000	-28.329578
3750.000000	-29.123627
3765.625000	-33.386559
3781.250000	-36.947060
3796.875000	-38.655708
3812.500000	-38.967606
3828.125000	-37.895725
3843.750000	-34.855900
3859.375000	-29.923864
3875.000000	-28.154375
3890.625000	-31.662420
3906.250000	-36.695210
3921.875000	-39.327377
3937.500000	-40.239853
3953.125000	-39.778717
3968.750000	-37.716682
3984.375000	-33.243420
4000.000000	-29.196064
4015.625000	-30.213385
4031.250000	-35.315063
4046.875000	-39.120998
4062.500000	-40.769161
4078.125000	-40.949966
4093.750000	-39.731155
4109.375000	-36.487278
4125.000000	-31.209908
4140.625000	-29.341015
4156.250000	-33.010899
4171.875000	-38.210629
4187.500000	-40.805798
4203.125000	-41.677803
4218.750000	-41.166470
4234.375000	-38.991428
4250.000000	-34.119797
4265.625000	-29.771317
4281.250000	-30.975925
4296.875000	-36.485001
4312.500000	-40.365566
4328.125000	-41.950253
4343.750000	-42.066624
4359.375000	-40.738609
4375.000000	-37.220352
4390.625000	-31.575037
4406.250000	-29.824221
4421.875000	-33.905533
4437.500000	-39.240601
4453.125000	-41.739094
4468.750000	-42.509377
4484.375000	-41.896149
4500.000000	-39.600021
4515.625000	-34.557716
4531.250000	-30.227606
4546.875000	-31.560709
4562.500000	-37.104576
4578.125000	-40.908485
4593.750000	-42.412994
4609.375000	-42.461800
4625.000000	-41.058887
4640.625000	-37.452179
4656.250000	-31.817768
4671.875000	-30.146454
4687.500000	-34.261208
4703.125000	-39.436649
4718.750000	-41.862656
4734.375000	-42.560215
4750.000000	-41.874470
4765.625000	-39.518990
4781.250000	-34.511322
4796.875000	-30.178873
4812.500000	-31.377596
4828.125000	-36.762032
4843.750000	-40.475327
4859.375000	-41.938953
4875.000000	-41.944374
4890.625000	-40.498966
4906.250000	-36.866047
4921.875000	-31.291424
4937.500000	-29.640614
4953.125000	-33.620304
4968.750000	-38.557552
4984.375000	-40.874134
5000.000000	-41.494488
5015.625000	-40.730274
5031.250000	-38.366936
5046.875000	-33.379597
5062.500000	-28.899717
5078.125000	-30.005041
5093.750000	-35.444347
5109.375000	-39.146236
5125.000000	-40.438705
5140.625000	-40.264591
5156.250000	-38.936768
5171.875000	-35.363899
5187.500000	-29.924995
5203.125000	-28.078724
5218.750000	-31.640041
5234.375000	-36.527836
5250.000000	-38.844315
5265.625000	-39.423275
5281.250000	-38.578457
5296.875000	-36.231010
5312.500000	-31.254002
5328.125000	-26.885189
5343.750000	-27.969498
5359.375000	-33.089687
5375.000000	-36.605122
5390.625000	-38.022110
5406.250000	-37.820023
5421.875000	-35.997978
5437.500000	-32.359138
5453.125000	-27.175695
5468.750000	-25.648159
5484.375000	-29.151566
5500.000000	-33.504669
5515.625000	-35.573147
5531.250000	-36.119251
5546.875000	-35.227615
5562.500000	-32.491287
5578.125000	-27.773792
5593.750000	-24.682550
5609.375000	-26.175171
5625.000000	-30.056860
5640.625000	-32.861168
5656.250000	-33.620689
5671.875000	-33.082512
5687.500000	-31.220524
5703.125000	-27.519684
5718.750000	-24.351868
5734.375000	-24.325953
5750.000000	-26.507275
5765.625000	-28.753805
5781.250000	-30.295631
5796.875000	-30.370394
5812.500000	-28.799212
5828.125000	-26.058474
5843.750000	-23.936348
5859.375000	-23.621834
5875.000000	-24.487120
5890.625000	-25.152637
5906.250000	-26.043571
5921.875000	-25.903309
5937.500000	-24.871996
5953.125000	-24.013479
5968.750000	-23.524712
5984.375000	-23.577288
6000.000000	-23.817211
6015.625000	-23.793837
6031.250000	-23.803650
6046.875000	-23.777355
6062.500000	-23.799122
6078.125000	-23.968801
6093.750000	-24.045193
6109.375000	-24.010662
6125.000000	-23.757246
6140.625000	-23.491987
6156.250000	-23.672447
6171.875000	-24.306707
6187.500000	-25.353140
6203.125000	-26.883471
6218.750000	-27.916126
6234.375000	-27.315409
6250.000000	-25.604752
6265.625000	-24.034079
6281.250000	-23.994102
6296.875000	-25.972836
6312.500000	-28.658640
6328.125000	-31.011179
6343.750000	-32.392467
6359.375000	-32.331299
6375.000000	-30.583090
6390.625000	-27.094395
6406.250000	-24.859655
6421.875000	-26.690155
6437.500000	-31.097078
6453.125000	-34.526451
6468.750000	-36.217762
6484.375000	-36.752419
6500.000000	-35.726727
6515.625000	-32.688911
6531.250000	-28.757912
6546.875000	-28.317232
6562.500000	-32.515427
6578.125000	-37.320873
6593.750000	-39.874245
6609.375000	-40.873493
6625.000000	-40.439026
6640.625000	-38.417374
6656.250000	-34.216423
6671.875000	-31.665007
6687.500000	-34.075882
6703.125000	-39.421894
6718.750000	-42.915180
6734.375000	-44.590973
6750.000000	-44.665428
6765.625000	-43.698315
6781.250000	-40.735737
6796.875000	-36.768806
6812.500000	-36.535202
6828.125000	-40.981361
6843.750000	-45.413204
6859.375000	-48.079460
6875.000000	-49.265484
6890.625000	-49.098103
6906.250000	-47.264969
6921.875000	-43.172668
6937.500000	-40.382828
6953.125000	-42.684830
6968.750000	-48.237782
6984.375000	-52.036114
7000.000000	-53.824524
7015.625000	-54.593529
7031.250000	-53.813805
7046.875000	-50.781940
7062.500000	-46.728111
7078.125000	-46.514137
7093.750000	-50.877659
7109.375000	-55.934067
7125.000000	-59.042496
7140.625000	-60.170242
7156.250000	-59.918655
7171.875000	-58.283321
7187.500000	-54.606750
7203.125000	-51.914932
7218.750000	-54.113155
7234.375000	-59.030445
7250.000000	-62.076862
7265.625000	-64.178116
7281.250000	-64.470390
7296.875000	-63.444660
7312.500000	-62.048855
7328.125000	-59.506367
7343.750000	-59.456234
7359.375000	-63.275055
7375.000000	-65.979340
7390.625000	-67.631233
7406.250000	-69.224953
7421.875000	-68.123573
7437.500000	-66.065865
7453.125000	-64.938759
7468.750000	-64.594971
7484.375000	-65.971855
7500.000000	-67.264908
7515.625000	-67.934555
7531.250000	-70.842201
7546.875000	-75.657501
7562.500000	-78.590271
7578.125000	-73.206390
7593.750000	-67.167290
7609.375000	-65.364174
7625.000000	-67.700874
7640.625000	-73.896088
7656.250000	-82.735092
7671.875000	-89.201843
7687.500000	-90.141968
7703.125000	-93.475571
7718.750000	-95.309059
7734.375000	-92.940857
7750.000000	-93.247383
7765.625000	-97.335716
7781.250000	-102.770683
7796.875000	-107.506783
7812.500000	-106.130653
7828.125000	-105.519295
7843.750000	-107.805595
7859.375000	-113.069916
7875.000000	-122.302223
7890.625000	-129.355682
7906.250000	-132.376434
7921.875000	-138.514053
7937.500000	-141.810257
7953.125000	-142.515198
7968.750000	-142.787689
7984.375000	-142.846313
