Frequency (Hz)	Level (dB)
15.625000	-51.690815
31.250000	-63.708733
46.875000	-61.871220
62.500000	-58.320488
78.125000	-54.307861
93.750000	-51.280609
109.375000	-43.366470
125.000000	-39.305637
140.625000	-41.497482
156.250000	-47.234550
171.875000	-50.393230
187.500000	-51.287075
203.125000	-50.719379
218.750000	-48.763538
234.375000	-45.156204
250.000000	-41.181541
265.625000	-40.470112
281.250000	-43.630657
296.875000	-47.237507
312.500000	-48.598476
328.125000	-48.796219
343.750000	-47.805252
359.375000	-44.564095
375.000000	-39.896103
390.625000	-38.658981
406.250000	-41.429367
421.875000	-44.095688
437.500000	-45.888653
453.125000	-46.829216
468.750000	-46.310280
484.375000	-44.441845
500.000000	-42.235123
515.625000	-40.014931
531.250000	-39.788200
546.875000	-42.928928
562.500000	-45.952660
578.125000	-46.818550
593.750000	-46.543510
609.375000	-46.077354
625.000000	-45.423069
640.625000	-43.711117
656.250000	-39.161003
671.875000	-33.443375
687.500000	-32.642490
703.125000	-36.937248
718.750000	-40.691742
734.375000	-41.744621
750.000000	-40.968082
765.625000	-38.097733
781.250000	-32.166027
796.875000	-28.462730
812.500000	-30.860128
828.125000	-36.353939
843.750000	-39.205418
859.375000	-39.926071
875.000000	-39.113750
890.625000	-36.511009
906.250000	-31.819050
921.875000	-28.746298
937.500000	-30.466873
953.125000	-34.785809
968.750000	-37.388805
984.375000	-38.115753
1000.000000	-37.454258
1015.625000	-35.582073
1031.250000	-33.169693
1046.875000	-32.108040
1062.500000	-33.345882
1078.125000	-34.946865
1093.750000	-35.487194
1109.375000	-36.128246
1125.000000	-36.300014
1140.625000	-35.792206
1156.250000	-34.996159
1171.875000	-34.295479
1187.500000	-33.949493
1203.125000	-33.950386
1218.750000	-34.055832
1234.375000	-34.125530
1250.000000	-34.180878
1265.625000	-34.252865
1281.250000	-34.239449
1296.875000	-33.877991
1312.500000	-32.938862
1328.125000	-31.314667
1343.750000	-29.410076
1359.375000	-28.469311
1375.000000	-29.284349
1390.625000	-31.059950
1406.250000	-32.467175
1421.875000	-32.950893
1437.500000	-32.344517
1453.125000	-30.470798
1468.750000	-27.486530
1484.375000	-25.522022
1500.000000	-26.561220
1515.625000	-29.606897
1531.250000	-32.123920
1546.875000	-33.243622
1562.500000	-33.060822
1578.125000	-31.420092
1593.750000	-27.994810
1609.375000	-24.970032
1625.000000	-25.333725
1640.625000	-28.596127
1656.250000	-31.905596
1671.875000	-33.669857
1687.500000	-33.937511
1703.125000	-32.785431
1718.750000	-29.642859
1734.375000	-25.564285
1750.000000	-24.565163
1765.625000	-27.600952
1781.250000	-31.376905
1796.875000	-33.838917
1812.500000	-34.617229
1828.125000	-33.996605
1843.750000	-31.635048
1859.375000	-27.186354
1875.000000	-24.377285
1890.625000	-26.190878
1906.250000	-30.307106
1921.875000	-33.468662
1937.500000	-34.879475
1953.125000	-34.793507
1968.750000	-33.165432
1984.375000	-29.214405
2000.000000	-24.947424
2015.625000	-24.898382
2031.250000	-28.960781
2046.875000	-32.611561
2062.500000	-34.750801
2078.125000	-35.220627
2093.750000	-34.271568
2109.375000	-31.406578
2125.000000	-26.617119
2140.625000	-24.308542
2156.250000	-26.886938
2171.875000	-31.001791
2187.500000	-33.920021
2203.125000	-35.063492
2218.750000	-34.771008
2234.375000	-32.906540
2250.000000	-28.713657
2265.625000	-24.632635
2281.250000	-24.988438
2296.875000	-29.119081
2312.500000	-32.465416
2328.125000	-34.423309
2343.750000	-34.735123
2359.375000	-33.607433
2375.000000	-30.499887
2390.625000	-25.880650
2406.250000	-24.056053
2421.875000	-26.810802
2437.500000	-30.486143
2453.125000	-33.179863
2468.750000	-34.150223
2484.375000	-33.664879
2500.000000	-31.522999
2515.625000	-27.264292
2531.250000	-23.920343
2546.875000	-25.037159
2562.500000	-28.808687
2578.125000	-31.453833
2593.750000	-33.149166
2609.375000	-33.248859
2625.000000	-31.901785
2640.625000	-28.604172
2656.250000	-24.724976
2671.875000	-23.837637
2687.500000	-26.509949
2703.125000	-29.166462
2718.750000	-31.486311
2734.375000	-32.206818
2750.000000	-31.476292
2765.625000	-29.047464
2781.250000	-25.485886
2796.875000	-23.592035
2812.500000	-24.918968
2828.125000	-27.246971
2843.750000	-29.534388
2859.375000	-30.835854
2875.000000	-30.651546
2890.625000	-29.006861
2906.250000	-26.077070
2921.875000	-23.846254
2937.500000	-23.929428
2953.125000	-25.440498
2968.750000	-27.204718
2984.375000	-28.962315
3000.000000	-29.376606
3015.625000	-28.513048
3031.250000	-26.438192
3046.875000	-24.381836
3062.500000	-23.672361
3078.125000	-24.336264
3093.750000	-25.403675
3109.375000	-26.919588
3125.000000	-27.928833
3140.625000	-27.825390
3156.250000	-26.708668
3171.875000	-25.131670
3187.500000	-24.084791
3203.125000	-23.894234
3218.750000	-24.336739
3234.375000	-25.108677
3250.000000	-26.223490
3265.625000	-27.033911
3281.250000	-27.020153
3296.875000	-26.147146
3312.500000	-24.869154
3328.125000	-23.947914
3343.750000	-23.772650
3359.375000	-24.332769
3375.000000	-25.335518
3390.625000	-26.848822
3406.250000	-27.948992
3421.875000	-27.979254
3437.500000	-26.819115
3453.125000	-24.972242
3468.750000	-23.719841
3484.375000	-24.126467
3500.000000	-25.162292
3515.625000	-26.960384
3531.250000	-29.124641
3546.875000	-29.910650
3562.500000	-29.383579
3578.125000	-27.408394
3593.750000	-24.868565
3609.375000	-23.826788
3625.000000	-25.039116
3640.625000	-27.415190
3656.250000	-30.035652
3671.875000	-31.470951
3687.500000	-31.555544
3703.125000	-30.263323
3718.750000	-27.348619
3734.375000	-24.574547
3750.000000	-24.482347
3765.625000	-26.993938
3781.250000	-30.145777
3796.875000	-32.372730
3812.500000	-33.115742
3828.125000	-32.538471
3843.750000	-30.293667
3859.375000	-26.403770
3875.000000	-24.192804
3890.625000	-25.949364
3906.250000	-29.611334
3921.875000	-32.693714
3937.500000	-34.144421
3953.125000	-34.152348
3968.750000	-32.744576
3984.375000	-29.278406
4000.000000	-25.289251
4015.625000	-24.852457
4031.250000	-28.334127
4046.875000	-32.124771
4062.500000	-34.423611
4078.125000	-35.114433
4093.750000	-34.441746
4109.375000	-32.059845
4125.000000	-27.575867
4140.625000	-24.666670
4156.250000	-26.454180
4171.875000	-30.815367
4187.500000	-34.088425
4203.125000	-35.538597
4218.750000	-35.540462
4234.375000	-34.083538
4250.000000	-30.385698
4265.625000	-25.750679
4281.250000	-25.107843
4296.875000	-29.081223
4312.500000	-33.228096
4328.125000	-35.537052
4343.750000	-36.186687
4359.375000	-35.455261
4375.000000	-32.958267
4390.625000	-28.050535
4406.250000	-24.841000
4421.875000	-26.873638
4437.500000	-31.677999
4453.125000	-34.955357
4468.750000	-36.334694
4484.375000	-36.274368
4500.000000	-34.748405
4515.625000	-30.915815
4531.250000	-26.040325
4546.875000	-25.324467
4562.500000	-29.424833
4578.125000	-33.707119
4593.750000	-35.961788
4609.375000	-36.567848
4625.000000	-35.802273
4640.625000	-33.273582
4656.250000	-28.318369
4671.875000	-25.003677
4687.500000	-26.972963
4703.125000	-31.784836
4718.750000	-35.018311
4734.375000	-36.318100
4750.000000	-36.190392
4765.625000	-34.624245
4781.250000	-30.879225
4796.875000	-26.018370
4812.500000	-25.102510
4828.125000	-28.927862
4843.750000	-32.957691
4859.375000	-35.103188
4875.000000	-35.789036
4890.625000	-35.127007
4906.250000	-32.659615
4921.875000	-27.892944
4937.500000	-24.719730
4953.125000	-26.526669
4968.750000	-30.918062
4984.375000	-33.983669
5000.000000	-35.219879
5015.625000	-35.087173
5031.250000	-33.515190
5046.875000	-29.921783
5062.500000	-25.462570
5078.125000	-24.611992
5093.750000	-28.073578
5109.375000	-31.754053
5125.000000	-33.913803
5140.625000	-34.314980
5156.250000	-33.564648
5171.875000	-31.190594
5187.500000	-26.860945
5203.125000	-24.165155
5218.750000	-25.488436
5234.375000	-28.852051
5250.000000	-31.531237
5265.625000	-32.973270
5281.250000	-32.864899
5296.875000	-31.339817
5312.500000	-27.991188
5328.125000	-24.490282
5343.750000	-24.082338
5359.375000	-26.585897
5375.000000	-29.104866
5390.625000	-31.296946
5406.250000	-31.874222
5421.875000	-30.780718
5437.500000	-28.212748
5453.125000	-25.024767
5468.750000	-23.483252
5484.375000	-24.684156
5500.000000	-26.487104
5515.625000	-28.480459
5531.250000	-29.680334
5546.875000	-29.532537
5562.500000	-27.764206
5578.125000	-25.167290
5593.750000	-23.424505
5609.375000	-23.736712
5625.000000	-24.815657
5640.625000	-25.716248
5656.250000	-27.004717
5671.875000	-27.019978
5687.500000	-26.017700
5703.125000	-24.567451
5718.750000	-23.418961
5734.375000	-23.260843
5750.000000	-24.162691
5765.625000	-24.171925
5781.250000	-24.409420
5796.875000	-24.642563
5812.500000	-24.379440
5828.125000	-23.852140
5843.750000	-23.326172
5859.375000	-23.160400
5875.000000	-23.748014
5890.625000	-23.819471
5906.250000	-23.655016
5921.875000	-23.660082
5937.500000	-23.503885
5953.125000	-23.380526
5968.750000	-23.276031
5984.375000	-23.359991
6000.000000	-23.569826
6015.625000	-23.525124
6031.250000	-23.341988
6046.875000	-23.369192
6062.500000	-23.394247
6078.125000	-23.529207
6093.750000	-23.536688
6109.375000	-23.486767
6125.000000	-23.385845
6140.625000	-23.227530
6156.250000	-23.283445
6171.875000	-23.712992
6187.500000	-23.836506
6203.125000	-23.930117
6218.750000	-24.173838
6234.375000	-24.187162
6250.000000	-23.870632
6265.625000	-23.419008
6281.250000	-23.216425
6296.875000	-23.964066
6312.500000	-24.438675
6328.125000	-25.007421
6343.750000	-26.392799
6359.375000	-27.057808
6375.000000	-26.315477
6390.625000	-24.738085
6406.250000	-23.505035
6421.875000	-23.761414
6437.500000	-25.338051
6453.125000	-27.436701
6468.750000	-29.805754
6484.375000	-30.992102
6500.000000	-30.909166
6515.625000	-29.066635
6531.250000	-25.887417
6546.875000	-24.113989
6562.500000	-25.740175
6578.125000	-29.500151
6593.750000	-32.944412
6609.375000	-34.798649
6625.000000	-35.194153
6640.625000	-34.172646
6656.250000	-31.194872
6671.875000	-27.034660
6687.500000	-26.438772
6703.125000	-30.599728
6718.750000	-35.426075
6734.375000	-38.094284
6750.000000	-39.058884
6765.625000	-38.714027
6781.250000	-37.079979
6796.875000	-33.226074
6812.500000	-30.174265
6828.125000	-31.718235
6843.750000	-36.537540
6859.375000	-40.275139
6875.000000	-42.683014
6890.625000	-43.460358
6906.250000	-42.550823
6921.875000	-39.977745
6937.500000	-35.867657
6953.125000	-34.883865
6968.750000	-38.867489
6984.375000	-43.985558
7000.000000	-46.653252
7015.625000	-47.511646
7031.250000	-48.089176
7046.875000	-47.085045
7062.500000	-43.429947
7078.125000	-40.384285
7093.750000	-42.083954
7109.375000	-47.368752
7125.000000	-51.731216
7140.625000	-53.941418
7156.250000	-54.530273
7171.875000	-53.350018
7187.500000	-48.831165
7203.125000	-43.135468
7218.750000	-40.426163
7234.375000	-41.376331
7250.000000	-46.315647
7265.625000	-53.923923
7281.250000	-57.469856
7296.875000	-59.030647
7312.500000	-58.761162
7328.125000	-55.964401
7343.750000	-53.003567
7359.375000	-54.271759
7375.000000	-58.663864
7390.625000	-61.068630
7406.250000	-60.342545
7421.875000	-59.321381
7437.500000	-59.393311
7453.125000	-60.095600
7468.750000	-59.004917
7484.375000	-58.188122
7500.000000	-59.302456
7515.625000	-62.022896
7531.250000	-64.654770
7546.875000	-65.401550
7562.500000	-61.517658
7578.125000	-54.750237
7593.750000	-47.332287
7609.375000	-44.450428
7625.000000	-44.519390
7640.625000	-49.002068
7656.250000	-55.545776
7671.875000	-64.857712
7687.500000	-70.733307
7703.125000	-75.954742
7718.750000	-78.113983
7734.375000	-78.659569
7750.000000	-78.510384
7765.625000	-79.881920
7781.250000	-83.173119
7796.875000	-85.832970
7812.500000	-87.448006
7828.125000	-92.058113
7843.750000	-98.375847
7859.375000	-102.440773
7875.000000	-108.527939
7890.625000	-117.423599
7906.250000	-124.532883
7921.875000	-129.881699
7937.500000	-132.913269
7953.125000	-134.273331
7968.750000	-135.321152
7984.375000	-136.006592
